## w(eV)         sigma(Sm^-1)     kappa(W(mK)^-1)        L12/e(Am^-1)      L22/e^2(Wm^-1)
    0.01              515800             765.105        -1.00553e+07         2.68503e+08
    0.03              515797             765.099        -1.00552e+07         2.68503e+08
    0.05              515790             765.086        -1.00552e+07         2.68503e+08
    0.07              515779             765.068        -1.00551e+07         2.68503e+08
    0.09              515765             765.044        -1.00551e+07         2.68503e+08
    0.11              515748             765.014         -1.0055e+07         2.68503e+08
    0.13              515727             764.978        -1.00549e+07         2.68502e+08
    0.15              515703             764.935        -1.00547e+07         2.68502e+08
    0.17              515675             764.887        -1.00546e+07         2.68502e+08
    0.19              515644             764.833        -1.00544e+07         2.68502e+08
    0.21              515609             764.772        -1.00542e+07         2.68502e+08
    0.23              515570             764.706         -1.0054e+07         2.68502e+08
    0.25              515529             764.633        -1.00537e+07         2.68502e+08
    0.27              515483             764.555        -1.00535e+07         2.68502e+08
    0.29              515435              764.47        -1.00532e+07         2.68502e+08
    0.31              515383             764.379        -1.00529e+07         2.68501e+08
    0.33              515327             764.282        -1.00526e+07         2.68501e+08
    0.35              515268              764.18        -1.00523e+07         2.68501e+08
    0.37              515205             764.071        -1.00519e+07         2.68501e+08
    0.39              515139             763.956        -1.00515e+07           2.685e+08
    0.41              515069             763.835        -1.00512e+07           2.685e+08
    0.43              514996             763.708        -1.00507e+07           2.685e+08
    0.45              514920             763.575        -1.00503e+07         2.68499e+08
    0.47              514840             763.435        -1.00499e+07         2.68499e+08
    0.49              514756              763.29        -1.00494e+07         2.68498e+08
    0.51              514669             763.139        -1.00489e+07         2.68498e+08
    0.53              514578             762.981        -1.00484e+07         2.68497e+08
    0.55              514484             762.818        -1.00478e+07         2.68497e+08
    0.57              514387             762.648        -1.00473e+07         2.68496e+08
    0.59              514286             762.473        -1.00467e+07         2.68495e+08
    0.61              514182             762.291        -1.00461e+07         2.68495e+08
    0.63              514074             762.103        -1.00455e+07         2.68494e+08
    0.65              513962             761.909        -1.00448e+07         2.68493e+08
    0.67              513847             761.709        -1.00442e+07         2.68492e+08
    0.69              513729             761.503        -1.00435e+07         2.68491e+08
    0.71              513607             761.291        -1.00428e+07          2.6849e+08
    0.73              513482             761.073         -1.0042e+07         2.68488e+08
    0.75              513353             760.848        -1.00413e+07         2.68487e+08
    0.77              513220             760.618        -1.00405e+07         2.68486e+08
    0.79              513085             760.381        -1.00397e+07         2.68484e+08
    0.81              512945             760.139        -1.00389e+07         2.68483e+08
    0.83              512802              759.89        -1.00381e+07         2.68481e+08
    0.85              512656             759.635        -1.00372e+07         2.68479e+08
    0.87              512506             759.374        -1.00363e+07         2.68477e+08
    0.89              512353             759.106        -1.00354e+07         2.68475e+08
    0.91              512196             758.833        -1.00345e+07         2.68473e+08
    0.93              512036             758.554        -1.00335e+07         2.68471e+08
    0.95              511872             758.268        -1.00326e+07         2.68469e+08
    0.97              511705             757.976        -1.00316e+07         2.68466e+08
    0.99              511534             757.678        -1.00306e+07         2.68463e+08
    1.01              511360             757.374        -1.00295e+07         2.68461e+08
    1.03              511182             757.064        -1.00284e+07         2.68458e+08
    1.05              511001             756.748        -1.00273e+07         2.68455e+08
    1.07              510816             756.425        -1.00262e+07         2.68451e+08
    1.09              510628             756.096        -1.00251e+07         2.68448e+08
    1.11              510436             755.761        -1.00239e+07         2.68444e+08
    1.13              510241              755.42        -1.00227e+07          2.6844e+08
    1.15              510042             755.073        -1.00215e+07         2.68436e+08
    1.17              509840              754.72        -1.00203e+07         2.68432e+08
    1.19              509634              754.36         -1.0019e+07         2.68428e+08
    1.21              509425             753.994        -1.00177e+07         2.68423e+08
    1.23              509212             753.622        -1.00164e+07         2.68418e+08
    1.25              508996             753.244         -1.0015e+07         2.68413e+08
    1.27              508776              752.86        -1.00137e+07         2.68408e+08
    1.29              508553             752.469        -1.00123e+07         2.68402e+08
    1.31              508326             752.072        -1.00108e+07         2.68396e+08
    1.33              508096             751.669        -1.00094e+07          2.6839e+08
    1.35              507862              751.26        -1.00079e+07         2.68384e+08
    1.37              507625             750.844        -1.00064e+07         2.68378e+08
    1.39              507384             750.423        -1.00049e+07         2.68371e+08
    1.41              507140             749.995        -1.00033e+07         2.68364e+08
    1.43              506892              749.56        -1.00017e+07         2.68356e+08
    1.45              506641              749.12        -1.00001e+07         2.68349e+08
    1.47              506386             748.673        -9.99846e+06         2.68341e+08
    1.49              506128              748.22        -9.99679e+06         2.68332e+08
    1.51              505866             747.761        -9.99508e+06         2.68324e+08
    1.53              505601             747.295        -9.99335e+06         2.68315e+08
    1.55              505332             746.824        -9.99159e+06         2.68305e+08
    1.57              505060             746.346         -9.9898e+06         2.68296e+08
    1.59              504784             745.861        -9.98798e+06         2.68286e+08
    1.61              504504             745.371        -9.98613e+06         2.68276e+08
    1.63              504222             744.874        -9.98424e+06         2.68265e+08
    1.65              503935             744.371        -9.98233e+06         2.68254e+08
    1.67              503645             743.861        -9.98039e+06         2.68242e+08
    1.69              503352             743.345        -9.97841e+06          2.6823e+08
    1.71              503055             742.823        -9.97641e+06         2.68218e+08
    1.73              502755             742.295        -9.97437e+06         2.68205e+08
    1.75              502451              741.76         -9.9723e+06         2.68192e+08
    1.77              502143             741.219         -9.9702e+06         2.68179e+08
    1.79              501832             740.672        -9.96807e+06         2.68165e+08
    1.81              501518             740.118         -9.9659e+06          2.6815e+08
    1.83              501200             739.558         -9.9637e+06         2.68136e+08
    1.85              500878             738.992        -9.96147e+06          2.6812e+08
    1.87              500553             738.419         -9.9592e+06         2.68104e+08
    1.89              500225              737.84         -9.9569e+06         2.68088e+08
    1.91              499893             737.255        -9.95456e+06         2.68071e+08
    1.93              499557             736.663        -9.95219e+06         2.68054e+08
    1.95              499218             736.065        -9.94979e+06         2.68036e+08
    1.97              498876             735.461        -9.94735e+06         2.68018e+08
    1.99              498529              734.85        -9.94488e+06         2.67999e+08
    2.01              498180             734.233        -9.94237e+06         2.67979e+08
    2.03              497827             733.609        -9.93982e+06         2.67959e+08
    2.05              497470             732.979        -9.93724e+06         2.67939e+08
    2.07              497110             732.343        -9.93462e+06         2.67918e+08
    2.09              496746             731.701        -9.93196e+06         2.67896e+08
    2.11              496379             731.052        -9.92927e+06         2.67874e+08
    2.13              496008             730.396        -9.92654e+06         2.67851e+08
    2.15              495634             729.734        -9.92377e+06         2.67827e+08
    2.17              495256             729.066        -9.92096e+06         2.67803e+08
    2.19              494875             728.392        -9.91812e+06         2.67778e+08
    2.21              494490             727.711        -9.91524e+06         2.67753e+08
    2.23              494102             727.024        -9.91231e+06         2.67726e+08
    2.25              493710              726.33        -9.90935e+06           2.677e+08
    2.27              493315              725.63        -9.90635e+06         2.67672e+08
    2.29              492916             724.923        -9.90331e+06         2.67644e+08
    2.31              492514              724.21        -9.90023e+06         2.67615e+08
    2.33              492108             723.491        -9.89711e+06         2.67585e+08
    2.35              491698             722.765        -9.89394e+06         2.67555e+08
    2.37              491285             722.033        -9.89074e+06         2.67524e+08
    2.39              490869             721.294        -9.88749e+06         2.67492e+08
    2.41              490449              720.55        -9.88421e+06          2.6746e+08
    2.43              490026             719.798        -9.88088e+06         2.67426e+08
    2.45              489599              719.04         -9.8775e+06         2.67392e+08
    2.47              489168             718.276        -9.87409e+06         2.67357e+08
    2.49              488734             717.505        -9.87063e+06         2.67321e+08
    2.51              488297             716.728        -9.86713e+06         2.67285e+08
    2.53              487856             715.945        -9.86358e+06         2.67247e+08
    2.55              487411             715.155        -9.85999e+06         2.67209e+08
    2.57              486963             714.359        -9.85636e+06          2.6717e+08
    2.59              486512             713.556        -9.85268e+06          2.6713e+08
    2.61              486057             712.747        -9.84895e+06         2.67089e+08
    2.63              485598             711.931        -9.84518e+06         2.67048e+08
    2.65              485136             711.109        -9.84137e+06         2.67005e+08
    2.67              484671             710.281        -9.83751e+06         2.66961e+08
    2.69              484202             709.446         -9.8336e+06         2.66917e+08
    2.71              483729             708.605        -9.82964e+06         2.66872e+08
    2.73              483253             707.757        -9.82564e+06         2.66825e+08
    2.75              482774             706.903        -9.82159e+06         2.66778e+08
    2.77              482291             706.043        -9.81749e+06          2.6673e+08
    2.79              481804             705.176        -9.81335e+06          2.6668e+08
    2.81              481314             704.302        -9.80915e+06          2.6663e+08
    2.83              480821             703.423        -9.80491e+06         2.66579e+08
    2.85              480324             702.537        -9.80062e+06         2.66527e+08
    2.87              479823             701.644        -9.79627e+06         2.66473e+08
    2.89              479319             700.745        -9.79188e+06         2.66419e+08
    2.91              478812              699.84        -9.78744e+06         2.66364e+08
    2.93              478301             698.928        -9.78295e+06         2.66307e+08
    2.95              477786              698.01         -9.7784e+06          2.6625e+08
    2.97              477269             697.085        -9.77381e+06         2.66191e+08
    2.99              476747             696.155        -9.76916e+06         2.66131e+08
    3.01              476222             695.217        -9.76446e+06          2.6607e+08
    3.03              475694             694.274        -9.75971e+06         2.66008e+08
    3.05              475162             693.324        -9.75491e+06         2.65945e+08
    3.07              474627             692.367        -9.75005e+06         2.65881e+08
    3.09              474088             691.405        -9.74514e+06         2.65815e+08
    3.11              473546             690.436        -9.74018e+06         2.65749e+08
    3.13              473000              689.46        -9.73516e+06         2.65681e+08
    3.15              472451             688.478        -9.73009e+06         2.65612e+08
    3.17              471899              687.49        -9.72497e+06         2.65541e+08
    3.19              471343             686.496        -9.71978e+06          2.6547e+08
    3.21              470783             685.495        -9.71455e+06         2.65397e+08
    3.23              470220             684.488        -9.70926e+06         2.65323e+08
    3.25              469654             683.474        -9.70391e+06         2.65248e+08
    3.27              469084             682.455         -9.6985e+06         2.65171e+08
    3.29              468511             681.429        -9.69304e+06         2.65093e+08
    3.31              467934             680.396        -9.68753e+06         2.65014e+08
    3.33              467354             679.358        -9.68195e+06         2.64934e+08
    3.35              466770             678.313        -9.67632e+06         2.64852e+08
    3.37              466183             677.262        -9.67063e+06         2.64769e+08
    3.39              465593             676.204        -9.66488e+06         2.64684e+08
    3.41              464999             675.141        -9.65907e+06         2.64598e+08
    3.43              464402             674.071        -9.65321e+06         2.64511e+08
    3.45              463801             672.994        -9.64728e+06         2.64423e+08
    3.47              463197             671.912         -9.6413e+06         2.64333e+08
    3.49              462589             670.823        -9.63525e+06         2.64241e+08
    3.51              461978             669.729        -9.62915e+06         2.64148e+08
    3.53              461364             668.628        -9.62298e+06         2.64054e+08
    3.55              460746              667.52        -9.61675e+06         2.63958e+08
    3.57              460125             666.407        -9.61047e+06         2.63861e+08
    3.59              459501             665.288        -9.60412e+06         2.63762e+08
    3.61              458873             664.162        -9.59771e+06         2.63662e+08
    3.63              458241              663.03        -9.59123e+06          2.6356e+08
    3.65              457607             661.892         -9.5847e+06         2.63457e+08
    3.67              456969             660.748         -9.5781e+06         2.63352e+08
    3.69              456327             659.598        -9.57144e+06         2.63246e+08
    3.71              455683             658.442        -9.56471e+06         2.63138e+08
    3.73              455035             657.279        -9.55793e+06         2.63028e+08
    3.75              454383             656.111        -9.55107e+06         2.62917e+08
    3.77              453728             654.937        -9.54416e+06         2.62805e+08
    3.79              453070             653.756        -9.53718e+06          2.6269e+08
    3.81              452409              652.57        -9.53013e+06         2.62575e+08
    3.83              451744             651.377        -9.52302e+06         2.62457e+08
    3.85              451076             650.179        -9.51584e+06         2.62338e+08
    3.87              450404             648.974         -9.5086e+06         2.62217e+08
    3.89              449730             647.764        -9.50129e+06         2.62095e+08
    3.91              449052             646.547        -9.49392e+06         2.61971e+08
    3.93              448370             645.325        -9.48648e+06         2.61845e+08
    3.95              447686             644.097        -9.47897e+06         2.61718e+08
    3.97              446998             642.863        -9.47139e+06         2.61589e+08
    3.99              446306             641.623        -9.46375e+06         2.61458e+08
    4.01              445612             640.377        -9.45604e+06         2.61325e+08
    4.03              444914             639.125        -9.44826e+06         2.61191e+08
    4.05              444213             637.868        -9.44042e+06         2.61055e+08
    4.07              443509             636.604         -9.4325e+06         2.60917e+08
    4.09              442801             635.335        -9.42452e+06         2.60777e+08
    4.11              442090             634.061        -9.41647e+06         2.60636e+08
    4.13              441376              632.78        -9.40834e+06         2.60492e+08
    4.15              440659             631.494        -9.40015e+06         2.60347e+08
    4.17              439938             630.202        -9.39189e+06         2.60201e+08
    4.19              439215             628.904        -9.38356e+06         2.60052e+08
    4.21              438488               627.6        -9.37516e+06         2.59901e+08
    4.23              437758             626.291        -9.36669e+06         2.59749e+08
    4.25              437024             624.977        -9.35814e+06         2.59595e+08
    4.27              436288             623.656        -9.34953e+06         2.59439e+08
    4.29              435548             622.331        -9.34085e+06          2.5928e+08
    4.31              434805             620.999        -9.33209e+06         2.59121e+08
    4.33              434059             619.662        -9.32326e+06         2.58959e+08
    4.35              433310              618.32        -9.31436e+06         2.58795e+08
    4.37              432558             616.972        -9.30539e+06         2.58629e+08
    4.39              431802             615.619        -9.29634e+06         2.58462e+08
    4.41              431043              614.26        -9.28723e+06         2.58292e+08
    4.43              430282             612.895        -9.27804e+06         2.58121e+08
    4.45              429517             611.526        -9.26877e+06         2.57947e+08
    4.47              428749             610.151        -9.25944e+06         2.57772e+08
    4.49              427978              608.77        -9.25003e+06         2.57594e+08
    4.51              427204             607.385        -9.24054e+06         2.57415e+08
    4.53              426426             605.994        -9.23098e+06         2.57233e+08
    4.55              425646             604.598        -9.22135e+06          2.5705e+08
    4.57              424863             603.196        -9.21165e+06         2.56864e+08
    4.59              424076             601.789        -9.20187e+06         2.56677e+08
    4.61              423287             600.378        -9.19201e+06         2.56487e+08
    4.63              422494             598.961        -9.18208e+06         2.56296e+08
    4.65              421699             597.538        -9.17208e+06         2.56102e+08
    4.67              420901             596.111          -9.162e+06         2.55906e+08
    4.69              420099             594.679        -9.15185e+06         2.55708e+08
    4.71              419295             593.241        -9.14162e+06         2.55508e+08
    4.73              418487             591.799        -9.13131e+06         2.55306e+08
    4.75              417677             590.352        -9.12093e+06         2.55102e+08
    4.77              416863               588.9        -9.11047e+06         2.54896e+08
    4.79              416047             587.442        -9.09994e+06         2.54687e+08
    4.81              415228              585.98        -9.08933e+06         2.54477e+08
    4.83              414405             584.513        -9.07864e+06         2.54264e+08
    4.85              413580             583.041        -9.06788e+06         2.54049e+08
    4.87              412752             581.565        -9.05704e+06         2.53832e+08
    4.89              411921             580.084        -9.04613e+06         2.53613e+08
    4.91              411088             578.597        -9.03513e+06         2.53392e+08
    4.93              410251             577.107        -9.02406e+06         2.53168e+08
    4.95              409411             575.611        -9.01292e+06         2.52942e+08
    4.97              408569             574.111        -9.00169e+06         2.52715e+08
    4.99              407724             572.606        -8.99039e+06         2.52484e+08
    5.01              406876             571.097        -8.97902e+06         2.52252e+08
    5.03              406025             569.583        -8.96756e+06         2.52018e+08
    5.05              405172             568.065        -8.95603e+06         2.51781e+08
    5.07              404315             566.542        -8.94442e+06         2.51542e+08
    5.09              403456             565.015        -8.93273e+06         2.51301e+08
    5.11              402594             563.484        -8.92096e+06         2.51057e+08
    5.13              401730             561.948        -8.90912e+06         2.50811e+08
    5.15              400862             560.408        -8.89719e+06         2.50563e+08
    5.17              399992             558.863        -8.88519e+06         2.50313e+08
    5.19              399119             557.314        -8.87312e+06         2.50061e+08
    5.21              398244             555.761        -8.86096e+06         2.49806e+08
    5.23              397366             554.204        -8.84873e+06         2.49549e+08
    5.25              396485             552.643        -8.83641e+06         2.49289e+08
    5.27              395602             551.078        -8.82402e+06         2.49028e+08
    5.29              394716             549.508        -8.81155e+06         2.48764e+08
    5.31              393827             547.935        -8.79901e+06         2.48498e+08
    5.33              392936             546.357        -8.78638e+06         2.48229e+08
    5.35              392042             544.776        -8.77368e+06         2.47958e+08
    5.37              391145             543.191         -8.7609e+06         2.47685e+08
    5.39              390246             541.602        -8.74804e+06         2.47409e+08
    5.41              389345             540.009         -8.7351e+06         2.47132e+08
    5.43              388441             538.412        -8.72208e+06         2.46851e+08
    5.45              387534             536.812        -8.70899e+06         2.46569e+08
    5.47              386625             535.208        -8.69581e+06         2.46284e+08
    5.49              385714               533.6        -8.68256e+06         2.45997e+08
    5.51              384800             531.989        -8.66923e+06         2.45707e+08
    5.53              383883             530.374        -8.65582e+06         2.45416e+08
    5.55              382964             528.755        -8.64233e+06         2.45121e+08
    5.57              382043             527.133        -8.62877e+06         2.44825e+08
    5.59              381119             525.508        -8.61513e+06         2.44526e+08
    5.61              380193             523.879        -8.60141e+06         2.44225e+08
    5.63              379265             522.247        -8.58761e+06         2.43921e+08
    5.65              378334             520.611        -8.57373e+06         2.43615e+08
    5.67              377401             518.972        -8.55978e+06         2.43307e+08
    5.69              376466             517.331        -8.54574e+06         2.42996e+08
    5.71              375528             515.685        -8.53163e+06         2.42683e+08
    5.73              374588             514.037        -8.51745e+06         2.42367e+08
    5.75              373646             512.386        -8.50318e+06         2.42049e+08
    5.77              372701             510.731        -8.48884e+06         2.41729e+08
    5.79              371755             509.074        -8.47442e+06         2.41407e+08
    5.81              370806             507.413        -8.45992e+06         2.41082e+08
    5.83              369855              505.75        -8.44535e+06         2.40754e+08
    5.85              368901             504.084         -8.4307e+06         2.40424e+08
    5.87              367946             502.415        -8.41597e+06         2.40092e+08
    5.89              366988             500.743        -8.40116e+06         2.39758e+08
    5.91              366029             499.069        -8.38628e+06         2.39421e+08
    5.93              365067             497.392        -8.37133e+06         2.39082e+08
    5.95              364103             495.712        -8.35629e+06          2.3874e+08
    5.97              363137              494.03        -8.34118e+06         2.38396e+08
    5.99              362169             492.345        -8.32599e+06         2.38049e+08
    6.01              361199             490.658        -8.31073e+06         2.37701e+08
    6.03              360227             488.968         -8.2954e+06         2.37349e+08
    6.05              359254             487.276        -8.27998e+06         2.36996e+08
    6.07              358278             485.581        -8.26449e+06          2.3664e+08
    6.09              357300             483.885        -8.24893e+06         2.36281e+08
    6.11              356320             482.186        -8.23329e+06         2.35921e+08
    6.13              355339             480.484        -8.21758e+06         2.35558e+08
    6.15              354355             478.781        -8.20179e+06         2.35192e+08
    6.17              353370             477.076        -8.18593e+06         2.34824e+08
    6.19              352383             475.368        -8.16999e+06         2.34454e+08
    6.21              351394             473.659        -8.15398e+06         2.34082e+08
    6.23              350403             471.947         -8.1379e+06         2.33707e+08
    6.25              349410             470.234        -8.12174e+06         2.33329e+08
    6.27              348416             468.519        -8.10551e+06          2.3295e+08
    6.29              347420             466.802        -8.08921e+06         2.32568e+08
    6.31              346422             465.084        -8.07283e+06         2.32183e+08
    6.33              345423             463.363        -8.05638e+06         2.31797e+08
    6.35              344422             461.641        -8.03986e+06         2.31408e+08
    6.37              343419             459.918        -8.02327e+06         2.31016e+08
    6.39              342415             458.193        -8.00661e+06         2.30623e+08
    6.41              341409             456.466        -7.98987e+06         2.30227e+08
    6.43              340401             454.739        -7.97307e+06         2.29828e+08
    6.45              339392             453.009        -7.95619e+06         2.29427e+08
    6.47              338382             451.279        -7.93924e+06         2.29024e+08
    6.49              337369             449.547        -7.92223e+06         2.28619e+08
    6.51              336356             447.814        -7.90514e+06         2.28212e+08
    6.53              335341              446.08        -7.88798e+06         2.27802e+08
    6.55              334324             444.344        -7.87076e+06         2.27389e+08
    6.57              333306             442.608        -7.85346e+06         2.26975e+08
    6.59              332287             440.871         -7.8361e+06         2.26558e+08
    6.61              331267             439.132        -7.81867e+06         2.26139e+08
    6.63              330245             437.393        -7.80117e+06         2.25718e+08
    6.65              329221             435.653         -7.7836e+06         2.25294e+08
    6.67              328197             433.912        -7.76597e+06         2.24868e+08
    6.69              327171             432.171        -7.74827e+06          2.2444e+08
    6.71              326144             430.429         -7.7305e+06          2.2401e+08
    6.73              325115             428.686        -7.71266e+06         2.23577e+08
    6.75              324086             426.943        -7.69477e+06         2.23142e+08
    6.77              323055             425.199         -7.6768e+06         2.22705e+08
    6.79              322023             423.454        -7.65877e+06         2.22266e+08
    6.81              320990              421.71        -7.64068e+06         2.21824e+08
    6.83              319956             419.965        -7.62252e+06         2.21381e+08
    6.85              318921             418.219         -7.6043e+06         2.20935e+08
    6.87              317885             416.474        -7.58602e+06         2.20487e+08
    6.89              316847             414.728        -7.56767e+06         2.20036e+08
    6.91              315809             412.982        -7.54926e+06         2.19584e+08
    6.93              314770             411.236        -7.53079e+06          2.1913e+08
    6.95              313730              409.49        -7.51226e+06         2.18673e+08
    6.97              312689             407.744        -7.49366e+06         2.18214e+08
    6.99              311647             405.998        -7.47501e+06         2.17753e+08
    7.01              310604             404.253        -7.45629e+06          2.1729e+08
    7.03              309560             402.507        -7.43752e+06         2.16825e+08
    7.05              308516             400.762        -7.41868e+06         2.16358e+08
    7.07              307470             399.017        -7.39979e+06         2.15888e+08
    7.09              306424             397.273        -7.38084e+06         2.15417e+08
    7.11              305377             395.529        -7.36183e+06         2.14943e+08
    7.13              304330             393.785        -7.34276e+06         2.14468e+08
    7.15              303282             392.042        -7.32364e+06          2.1399e+08
    7.17              302233               390.3        -7.30446e+06         2.13511e+08
    7.19              301183             388.558        -7.28522e+06         2.13029e+08
    7.21              300133             386.817        -7.26593e+06         2.12545e+08
    7.23              299082             385.076        -7.24659e+06          2.1206e+08
    7.25              298031             383.337        -7.22719e+06         2.11572e+08
    7.27              296979             381.598        -7.20773e+06         2.11083e+08
    7.29              295927             379.861        -7.18823e+06         2.10591e+08
    7.31              294874             378.124        -7.16867e+06         2.10098e+08
    7.33              293821             376.388        -7.14905e+06         2.09602e+08
    7.35              292767             374.654        -7.12939e+06         2.09105e+08
    7.37              291713              372.92        -7.10967e+06         2.08606e+08
    7.39              290659             371.188        -7.08991e+06         2.08104e+08
    7.41              289604             369.457        -7.07009e+06         2.07601e+08
    7.43              288549             367.727        -7.05023e+06         2.07097e+08
    7.45              287494             365.999        -7.03031e+06          2.0659e+08
    7.47              286438             364.272        -7.01035e+06         2.06081e+08
    7.49              285382             362.547        -6.99034e+06         2.05571e+08
    7.51              284326             360.823        -6.97028e+06         2.05059e+08
    7.53              283270             359.101        -6.95018e+06         2.04545e+08
    7.55              282214             357.381        -6.93003e+06         2.04029e+08
    7.57              281157             355.662        -6.90983e+06         2.03511e+08
    7.59              280101             353.945        -6.88959e+06         2.02992e+08
    7.61              279044             352.229        -6.86931e+06         2.02471e+08
    7.63              277988             350.516        -6.84898e+06         2.01948e+08
    7.65              276931             348.805        -6.82861e+06         2.01424e+08
    7.67              275874             347.095        -6.80819e+06         2.00898e+08
    7.69              274818             345.388        -6.78774e+06          2.0037e+08
    7.71              273761             343.682        -6.76724e+06         1.99841e+08
    7.73              272705             341.979         -6.7467e+06          1.9931e+08
    7.75              271649             340.278        -6.72613e+06         1.98777e+08
    7.77              270593             338.579        -6.70551e+06         1.98243e+08
    7.79              269537             336.883        -6.68485e+06         1.97707e+08
    7.81              268481             335.189        -6.66416e+06         1.97169e+08
    7.83              267426             333.497        -6.64343e+06          1.9663e+08
    7.85              266371             331.808        -6.62266e+06          1.9609e+08
    7.87              265316             330.121        -6.60186e+06         1.95547e+08
    7.89              264261             328.437        -6.58102e+06         1.95004e+08
    7.91              263207             326.756        -6.56015e+06         1.94459e+08
    7.93              262153             325.077        -6.53924e+06         1.93912e+08
    7.95              261100             323.401         -6.5183e+06         1.93364e+08
    7.97              260047             321.728        -6.49733e+06         1.92815e+08
    7.99              258995             320.057        -6.47632e+06         1.92264e+08
    8.01              257943              318.39        -6.45528e+06         1.91712e+08
    8.03              256892             316.725        -6.43422e+06         1.91158e+08
    8.05              255841             315.063        -6.41312e+06         1.90603e+08
    8.07              254791             313.405        -6.39199e+06         1.90047e+08
    8.09              253741             311.749        -6.37083e+06         1.89489e+08
    8.11              252692             310.097        -6.34965e+06          1.8893e+08
    8.13              251644             308.448        -6.32844e+06          1.8837e+08
    8.15              250597             306.802         -6.3072e+06         1.87809e+08
    8.17              249550             305.159        -6.28594e+06         1.87246e+08
    8.19              248504              303.52        -6.26465e+06         1.86682e+08
    8.21              247459             301.884        -6.24334e+06         1.86117e+08
    8.23              246414             300.252          -6.222e+06          1.8555e+08
    8.25              245371             298.623        -6.20064e+06         1.84983e+08
    8.27              244328             296.998        -6.17926e+06         1.84414e+08
    8.29              243286             295.376        -6.15786e+06         1.83844e+08
    8.31              242245             293.758        -6.13643e+06         1.83273e+08
    8.33              241206             292.144        -6.11499e+06         1.82701e+08
    8.35              240167             290.533        -6.09353e+06         1.82128e+08
    8.37              239129             288.926        -6.07204e+06         1.81554e+08
    8.39              238092             287.323        -6.05054e+06         1.80979e+08
    8.41              237056             285.724        -6.02903e+06         1.80403e+08
    8.43              236022             284.129        -6.00749e+06         1.79826e+08
    8.45              234988             282.538        -5.98594e+06         1.79248e+08
    8.47              233956             280.951        -5.96438e+06         1.78669e+08
    8.49              232925             279.368         -5.9428e+06         1.78089e+08
    8.51              231895             277.789        -5.92121e+06         1.77508e+08
    8.53              230866             276.214         -5.8996e+06         1.76926e+08
    8.55              229839             274.644        -5.87798e+06         1.76343e+08
    8.57              228813             273.078        -5.85636e+06          1.7576e+08
    8.59              227788             271.516        -5.83472e+06         1.75176e+08
    8.61              226765             269.958        -5.81307e+06         1.74591e+08
    8.63              225743             268.405        -5.79141e+06         1.74005e+08
    8.65              224722             266.856        -5.76974e+06         1.73418e+08
    8.67              223703             265.312        -5.74807e+06         1.72831e+08
    8.69              222685             263.773        -5.72639e+06         1.72243e+08
    8.71              221669             262.238         -5.7047e+06         1.71654e+08
    8.73              220654             260.707        -5.68301e+06         1.71065e+08
    8.75              219641             259.181        -5.66131e+06         1.70475e+08
    8.77              218630              257.66        -5.63961e+06         1.69884e+08
    8.79              217620             256.144        -5.61791e+06         1.69293e+08
    8.81              216611             254.633        -5.59621e+06         1.68701e+08
    8.83              215605             253.126         -5.5745e+06         1.68109e+08
    8.85              214600             251.624        -5.55279e+06         1.67516e+08
    8.87              213597             250.127        -5.53108e+06         1.66923e+08
    8.89              212595             248.636        -5.50938e+06         1.66329e+08
    8.91              211595             247.149        -5.48767e+06         1.65734e+08
    8.93              210597             245.667        -5.46597e+06          1.6514e+08
    8.95              209601              244.19        -5.44427e+06         1.64544e+08
    8.97              208607             242.719        -5.42257e+06         1.63949e+08
    8.99              207615             241.252        -5.40088e+06         1.63353e+08
    9.01              206624             239.791         -5.3792e+06         1.62757e+08
    9.03              205636             238.335        -5.35752e+06          1.6216e+08
    9.05              204649             236.884        -5.33584e+06         1.61563e+08
    9.07              203664             235.439        -5.31418e+06         1.60966e+08
    9.09              202682             233.999        -5.29252e+06         1.60368e+08
    9.11              201701             232.564        -5.27087e+06          1.5977e+08
    9.13              200722             231.135        -5.24923e+06         1.59172e+08
    9.15              199746             229.711        -5.22761e+06         1.58574e+08
    9.17              198772             228.293        -5.20599e+06         1.57976e+08
    9.19              197799              226.88        -5.18439e+06         1.57377e+08
    9.21              196829             225.473         -5.1628e+06         1.56779e+08
    9.23              195861             224.072        -5.14122e+06          1.5618e+08
    9.25              194896             222.676        -5.11966e+06         1.55581e+08
    9.27              193932             221.286        -5.09811e+06         1.54983e+08
    9.29              192971             219.901        -5.07658e+06         1.54384e+08
    9.31              192012             218.523        -5.05506e+06         1.53785e+08
    9.33              191055              217.15        -5.03356e+06         1.53186e+08
    9.35              190101             215.783        -5.01208e+06         1.52587e+08
    9.37              189149             214.421        -4.99062e+06         1.51988e+08
    9.39              188199             213.066        -4.96918e+06          1.5139e+08
    9.41              187252             211.716        -4.94776e+06         1.50791e+08
    9.43              186308             210.373        -4.92636e+06         1.50193e+08
    9.45              185365             209.035        -4.90498e+06         1.49594e+08
    9.47              184425             207.704        -4.88363e+06         1.48996e+08
    9.49              183488             206.378         -4.8623e+06         1.48398e+08
    9.51              182553             205.059        -4.84099e+06           1.478e+08
    9.53              181621             203.745        -4.81971e+06         1.47203e+08
    9.55              180691             202.438        -4.79845e+06         1.46606e+08
    9.57              179764             201.137        -4.77722e+06         1.46009e+08
    9.59              178839             199.842        -4.75602e+06         1.45412e+08
    9.61              177917             198.553        -4.73484e+06         1.44816e+08
    9.63              176998              197.27        -4.71369e+06          1.4422e+08
    9.65              176081             195.994        -4.69257e+06         1.43624e+08
    9.67              175167             194.724        -4.67148e+06         1.43029e+08
    9.69              174256              193.46        -4.65042e+06         1.42434e+08
    9.71              173347             192.203         -4.6294e+06          1.4184e+08
    9.73              172442             190.952         -4.6084e+06         1.41246e+08
    9.75              171539             189.707        -4.58744e+06         1.40653e+08
    9.77              170638             188.469        -4.56651e+06          1.4006e+08
    9.79              169741             187.237        -4.54562e+06         1.39468e+08
    9.81              168847             186.011        -4.52475e+06         1.38876e+08
    9.83              167955             184.793        -4.50393e+06         1.38285e+08
    9.85              167066              183.58        -4.48314e+06         1.37694e+08
    9.87              166180             182.374        -4.46239e+06         1.37104e+08
    9.89              165297             181.175        -4.44167e+06         1.36515e+08
    9.91              164417             179.982          -4.421e+06         1.35926e+08
    9.93              163540             178.796        -4.40036e+06         1.35338e+08
    9.95              162666             177.616        -4.37976e+06         1.34751e+08
    9.97              161794             176.443         -4.3592e+06         1.34164e+08
    9.99              160926             175.276        -4.33869e+06         1.33578e+08
   10.01              160061             174.116        -4.31821e+06         1.32993e+08
   10.03              159199             172.963        -4.29778e+06         1.32409e+08
   10.05              158340             171.817        -4.27739e+06         1.31826e+08
   10.07              157484             170.677        -4.25704e+06         1.31243e+08
   10.09              156631             169.544        -4.23673e+06         1.30661e+08
   10.11              155781             168.418        -4.21648e+06          1.3008e+08
   10.13              154935             167.298        -4.19626e+06           1.295e+08
   10.15              154091             166.185        -4.17609e+06         1.28921e+08
   10.17              153251             165.079        -4.15597e+06         1.28343e+08
   10.19              152414              163.98         -4.1359e+06         1.27766e+08
   10.21              151580             162.888        -4.11587e+06          1.2719e+08
   10.23              150749             161.802         -4.0959e+06         1.26615e+08
   10.25              149922             160.723        -4.07597e+06         1.26041e+08
   10.27              149097             159.652        -4.05609e+06         1.25467e+08
   10.29              148276             158.586        -4.03626e+06         1.24895e+08
   10.31              147458             157.528        -4.01648e+06         1.24324e+08
   10.33              146644             156.477        -3.99676e+06         1.23754e+08
   10.35              145833             155.433        -3.97708e+06         1.23186e+08
   10.37              145025             154.395        -3.95746e+06         1.22618e+08
   10.39              144221             153.364        -3.93789e+06         1.22051e+08
   10.41              143419             152.341        -3.91838e+06         1.21486e+08
   10.43              142622             151.324        -3.89892e+06         1.20922e+08
   10.45              141827             150.314        -3.87951e+06         1.20359e+08
   10.47              141036             149.311        -3.86016e+06         1.19797e+08
   10.49              140248             148.315        -3.84087e+06         1.19237e+08
   10.51              139464             147.326        -3.82163e+06         1.18678e+08
   10.53              138683             146.344        -3.80245e+06          1.1812e+08
   10.55              137906             145.369        -3.78332e+06         1.17563e+08
   10.57              137132             144.401        -3.76426e+06         1.17008e+08
   10.59              136362              143.44        -3.74525e+06         1.16454e+08
   10.61              135595             142.486        -3.72631e+06         1.15901e+08
   10.63              134831             141.538        -3.70742e+06          1.1535e+08
   10.65              134071             140.598        -3.68859e+06           1.148e+08
   10.67              133314             139.665        -3.66982e+06         1.14252e+08
   10.69              132561             138.739        -3.65112e+06         1.13705e+08
   10.71              131812              137.82        -3.63247e+06          1.1316e+08
   10.73              131066             136.907        -3.61389e+06         1.12616e+08
   10.75              130324             136.002        -3.59537e+06         1.12073e+08
   10.77              129585             135.104        -3.57691e+06         1.11532e+08
   10.79              128849             134.212        -3.55852e+06         1.10992e+08
   10.81              128118             133.328        -3.54019e+06         1.10454e+08
   10.83              127390             132.451        -3.52193e+06         1.09918e+08
   10.85              126665             131.581        -3.50373e+06         1.09383e+08
   10.87              125944             130.717        -3.48559e+06          1.0885e+08
   10.89              125227             129.861        -3.46753e+06         1.08318e+08
   10.91              124513             129.012        -3.44952e+06         1.07788e+08
   10.93              123803             128.169        -3.43159e+06         1.07259e+08
   10.95              123096             127.334        -3.41372e+06         1.06732e+08
   10.97              122393             126.505        -3.39592e+06         1.06207e+08
   10.99              121694             125.684        -3.37818e+06         1.05684e+08
   11.01              120999             124.869        -3.36052e+06         1.05162e+08
   11.03              120307             124.062        -3.34292e+06         1.04641e+08
   11.05              119618             123.261        -3.32539e+06         1.04123e+08
   11.07              118934             122.467        -3.30794e+06         1.03606e+08
   11.09              118253             121.681        -3.29055e+06         1.03091e+08
   11.11              117576             120.901        -3.27323e+06         1.02578e+08
   11.13              116902             120.128        -3.25598e+06         1.02066e+08
   11.15              116232             119.362        -3.23881e+06         1.01557e+08
   11.17              115566             118.603         -3.2217e+06         1.01049e+08
   11.19              114903              117.85        -3.20467e+06         1.00543e+08
   11.21              114245             117.105         -3.1877e+06         1.00038e+08
   11.23              113589             116.367        -3.17082e+06          9.9536e+07
   11.25              112938             115.635          -3.154e+06         9.90354e+07
   11.27              112290              114.91        -3.13725e+06         9.85367e+07
   11.29              111646             114.192        -3.12058e+06         9.80398e+07
   11.31              111006             113.481        -3.10399e+06         9.75448e+07
   11.33              110370             112.776        -3.08746e+06         9.70516e+07
   11.35              109737             112.079        -3.07101e+06         9.65604e+07
   11.37              109108             111.388        -3.05464e+06         9.60711e+07
   11.39              108482             110.704        -3.03834e+06         9.55838e+07
   11.41              107861             110.026        -3.02211e+06         9.50983e+07
   11.43              107243             109.356        -3.00596e+06         9.46149e+07
   11.45              106629             108.692        -2.98988e+06         9.41333e+07
   11.47              106018             108.034        -2.97388e+06         9.36538e+07
   11.49              105412             107.384        -2.95796e+06         9.31762e+07
   11.51              104809              106.74        -2.94211e+06         9.27006e+07
   11.53              104209             106.103        -2.92634e+06         9.22271e+07
   11.55              103614             105.472        -2.91065e+06         9.17555e+07
   11.57              103022             104.848        -2.89503e+06         9.12859e+07
   11.59              102434              104.23        -2.87949e+06         9.08184e+07
   11.61              101850              103.62        -2.86403e+06         9.03529e+07
   11.63              101269             103.015        -2.84864e+06         8.98895e+07
   11.65              100692             102.417        -2.83334e+06         8.94281e+07
   11.67              100119             101.826        -2.81811e+06         8.89687e+07
   11.69               99550             101.241        -2.80295e+06         8.85115e+07
   11.71             98984.3             100.663        -2.78788e+06         8.80563e+07
   11.73             98422.4              100.09        -2.77289e+06         8.76032e+07
   11.75             97864.1             99.5249        -2.75797e+06         8.71522e+07
   11.77             97309.6             98.9657        -2.74313e+06         8.67033e+07
   11.79             96758.8             98.4128        -2.72837e+06         8.62566e+07
   11.81             96211.8             97.8662        -2.71369e+06         8.58119e+07
   11.83             95668.4              97.326        -2.69909e+06         8.53693e+07
   11.85             95128.7             96.7921        -2.68457e+06         8.49289e+07
   11.87             94592.7             96.2644        -2.67013e+06         8.44906e+07
   11.89             94060.5             95.7429        -2.65576e+06         8.40545e+07
   11.91             93531.9             95.2277        -2.64148e+06         8.36205e+07
   11.93               93007             94.7186        -2.62728e+06         8.31887e+07
   11.95             92485.8             94.2157        -2.61315e+06          8.2759e+07
   11.97             91968.3             93.7189        -2.59911e+06         8.23315e+07
   11.99             91454.4             93.2282        -2.58515e+06         8.19062e+07
   12.01             90944.2             92.7436        -2.57126e+06          8.1483e+07
   12.03             90437.7              92.265        -2.55746e+06         8.10621e+07
   12.05             89934.8             91.7924        -2.54373e+06         8.06433e+07
   12.07             89435.6             91.3258        -2.53009e+06         8.02267e+07
   12.09               88940             90.8652        -2.51653e+06         7.98123e+07
   12.11             88448.1             90.4104        -2.50305e+06         7.94001e+07
   12.13             87959.8             89.9616        -2.48964e+06         7.89901e+07
   12.15             87475.1             89.5186        -2.47632e+06         7.85823e+07
   12.17               86994             89.0814        -2.46308e+06         7.81767e+07
   12.19             86516.6               88.65        -2.44992e+06         7.77733e+07
   12.21             86042.7             88.2244        -2.43684e+06         7.73722e+07
   12.23             85572.4             87.8045        -2.42384e+06         7.69732e+07
   12.25             85105.8             87.3903        -2.41092e+06         7.65765e+07
   12.27             84642.7             86.9818        -2.39808e+06          7.6182e+07
   12.29             84183.2             86.5789        -2.38532e+06         7.57898e+07
   12.31             83727.2             86.1815        -2.37264e+06         7.53997e+07
   12.33             83274.8             85.7897        -2.36005e+06         7.50119e+07
   12.35               82826             85.4035        -2.34753e+06         7.46264e+07
   12.37             82380.6             85.0227        -2.33509e+06          7.4243e+07
   12.39             81938.8             84.6474        -2.32274e+06         7.38619e+07
   12.41             81500.6             84.2775        -2.31046e+06         7.34831e+07
   12.43             81065.8              83.913        -2.29826e+06         7.31064e+07
   12.45             80634.5             83.5538        -2.28615e+06         7.27321e+07
   12.47             80206.8             83.1999        -2.27411e+06         7.23599e+07
   12.49             79782.5             82.8513        -2.26216e+06           7.199e+07
   12.51             79361.6             82.5079        -2.25028e+06         7.16224e+07
   12.53             78944.3             82.1697        -2.23848e+06         7.12569e+07
   12.55             78530.3             81.8366        -2.22677e+06         7.08938e+07
   12.57             78119.8             81.5087        -2.21513e+06         7.05328e+07
   12.59             77712.8             81.1858        -2.20358e+06         7.01741e+07
   12.61             77309.1              80.868         -2.1921e+06         6.98177e+07
   12.63             76908.9             80.5551         -2.1807e+06         6.94635e+07
   12.65               76512             80.2473        -2.16938e+06         6.91115e+07
   12.67             76118.5             79.9443        -2.15814e+06         6.87617e+07
   12.69             75728.4             79.6462        -2.14698e+06         6.84142e+07
   12.71             75341.7              79.353         -2.1359e+06          6.8069e+07
   12.73             74958.3             79.0645         -2.1249e+06         6.77259e+07
   12.75             74578.2             78.7808        -2.11397e+06         6.73851e+07
   12.77             74201.4             78.5018        -2.10313e+06         6.70465e+07
   12.79               73828             78.2275        -2.09236e+06         6.67102e+07
   12.81             73457.8             77.9579        -2.08167e+06          6.6376e+07
   12.83               73091             77.6928        -2.07106e+06         6.60441e+07
   12.85             72727.4             77.4322        -2.06052e+06         6.57144e+07
   12.87               72367             77.1762        -2.05007e+06          6.5387e+07
   12.89             72009.9             76.9246        -2.03969e+06         6.50617e+07
   12.91               71656             76.6775        -2.02939e+06         6.47386e+07
   12.93             71305.3             76.4347        -2.01916e+06         6.44178e+07
   12.95             70957.9             76.1963        -2.00902e+06         6.40992e+07
   12.97             70613.6             75.9621        -1.99895e+06         6.37827e+07
   12.99             70272.5             75.7322        -1.98895e+06         6.34685e+07
   13.01             69934.5             75.5066        -1.97903e+06         6.31564e+07
   13.03             69599.7              75.285        -1.96919e+06         6.28465e+07
   13.05               69268             75.0676        -1.95943e+06         6.25388e+07
   13.07             68939.5             74.8543        -1.94974e+06         6.22333e+07
   13.09               68614              74.645        -1.94012e+06           6.193e+07
   13.11             68291.6             74.4397        -1.93058e+06         6.16288e+07
   13.13             67972.3             74.2384        -1.92112e+06         6.13298e+07
   13.15             67656.1             74.0409        -1.91173e+06          6.1033e+07
   13.17             67342.8             73.8473        -1.90241e+06         6.07383e+07
   13.19             67032.7             73.6575        -1.89317e+06         6.04458e+07
   13.21             66725.5             73.4715        -1.88401e+06         6.01554e+07
   13.23             66421.3             73.2892        -1.87491e+06         5.98671e+07
   13.25             66120.1             73.1106        -1.86589e+06          5.9581e+07
   13.27             65821.8             72.9357        -1.85695e+06          5.9297e+07
   13.29             65526.5             72.7643        -1.84807e+06         5.90151e+07
   13.31             65234.2             72.5965        -1.83927e+06         5.87354e+07
   13.33             64944.7             72.4321        -1.83054e+06         5.84577e+07
   13.35             64658.2             72.2713        -1.82189e+06         5.81822e+07
   13.37             64374.5             72.1138         -1.8133e+06         5.79087e+07
   13.39             64093.7             71.9597        -1.80479e+06         5.76373e+07
   13.41             63815.8              71.809        -1.79635e+06         5.73681e+07
   13.43             63540.6             71.6615        -1.78798e+06         5.71008e+07
   13.45             63268.3             71.5173        -1.77968e+06         5.68357e+07
   13.47             62998.8             71.3763        -1.77145e+06         5.65726e+07
   13.49             62732.1             71.2384        -1.76329e+06         5.63116e+07
   13.51             62468.2             71.1036         -1.7552e+06         5.60526e+07
   13.53               62207             70.9719        -1.74718e+06         5.57957e+07
   13.55             61948.5             70.8432        -1.73923e+06         5.55407e+07
   13.57             61692.8             70.7175        -1.73135e+06         5.52879e+07
   13.59             61439.7             70.5947        -1.72353e+06          5.5037e+07
   13.61             61189.4             70.4748        -1.71579e+06         5.47881e+07
   13.63             60941.7             70.3577        -1.70811e+06         5.45412e+07
   13.65             60696.6             70.2434         -1.7005e+06         5.42964e+07
   13.67             60454.2             70.1319        -1.69296e+06         5.40535e+07
   13.69             60214.4             70.0232        -1.68548e+06         5.38125e+07
   13.71             59977.2              69.917        -1.67808e+06         5.35736e+07
   13.73             59742.5             69.8135        -1.67073e+06         5.33366e+07
   13.75             59510.5             69.7126        -1.66346e+06         5.31015e+07
   13.77             59280.9             69.6143        -1.65624e+06         5.28684e+07
   13.79             59053.9             69.5184         -1.6491e+06         5.26372e+07
   13.81             58829.4              69.425        -1.64202e+06          5.2408e+07
   13.83             58607.4              69.334          -1.635e+06         5.21806e+07
   13.85             58387.9             69.2454        -1.62805e+06         5.19552e+07
   13.87             58170.8             69.1591        -1.62116e+06         5.17316e+07
   13.89             57956.1             69.0751        -1.61433e+06           5.151e+07
   13.91             57743.9             68.9933        -1.60757e+06         5.12902e+07
   13.93             57534.1             68.9138        -1.60087e+06         5.10723e+07
   13.95             57326.6             68.8364        -1.59423e+06         5.08562e+07
   13.97             57121.6             68.7612        -1.58766e+06          5.0642e+07
   13.99             56918.8              68.688        -1.58115e+06         5.04296e+07
   14.01             56718.4             68.6169        -1.57469e+06          5.0219e+07
   14.03             56520.3             68.5478         -1.5683e+06         5.00103e+07
   14.05             56324.5             68.4806        -1.56197e+06         4.98034e+07
   14.07               56131             68.4154         -1.5557e+06         4.95982e+07
   14.09             55939.7             68.3521        -1.54949e+06         4.93949e+07
   14.11             55750.7             68.2906        -1.54334e+06         4.91933e+07
   14.13             55563.9             68.2309        -1.53724e+06         4.89935e+07
   14.15             55379.2              68.173        -1.53121e+06         4.87955e+07
   14.17             55196.8             68.1169        -1.52523e+06         4.85992e+07
   14.19             55016.5             68.0624        -1.51932e+06         4.84046e+07
   14.21             54838.4             68.0096        -1.51346e+06         4.82118e+07
   14.23             54662.4             67.9584        -1.50765e+06         4.80207e+07
   14.25             54488.5             67.9087        -1.50191e+06         4.78313e+07
   14.27             54316.7             67.8607        -1.49622e+06         4.76435e+07
   14.29               54147             67.8141        -1.49058e+06         4.74575e+07
   14.31             53979.3              67.769          -1.485e+06         4.72731e+07
   14.33             53813.7             67.7254        -1.47948e+06         4.70904e+07
   14.35             53650.1             67.6831        -1.47401e+06         4.69094e+07
   14.37             53488.5             67.6423        -1.46859e+06           4.673e+07
   14.39             53328.9             67.6027        -1.46323e+06         4.65522e+07
   14.41             53171.2             67.5645        -1.45792e+06          4.6376e+07
   14.43             53015.5             67.5275        -1.45267e+06         4.62015e+07
   14.45             52861.7             67.4917        -1.44747e+06         4.60285e+07
   14.47             52709.8             67.4571        -1.44232e+06         4.58571e+07
   14.49             52559.9             67.4237        -1.43722e+06         4.56873e+07
   14.51             52411.7             67.3915        -1.43218e+06         4.55191e+07
   14.53             52265.5             67.3603        -1.42718e+06         4.53524e+07
   14.55             52121.1             67.3302        -1.42224e+06         4.51872e+07
   14.57             51978.5             67.3011        -1.41734e+06         4.50236e+07
   14.59             51837.7              67.273         -1.4125e+06         4.48615e+07
   14.61             51698.7             67.2459        -1.40771e+06         4.47009e+07
   14.63             51561.4             67.2197        -1.40296e+06         4.45418e+07
   14.65             51425.9             67.1945        -1.39827e+06         4.43842e+07
   14.67             51292.1             67.1701        -1.39362e+06         4.42281e+07
   14.69             51160.1             67.1465        -1.38902e+06         4.40734e+07
   14.71             51029.7             67.1238        -1.38447e+06         4.39202e+07
   14.73               50901             67.1019        -1.37996e+06         4.37684e+07
   14.75               50774             67.0807         -1.3755e+06          4.3618e+07
   14.77             50648.6             67.0602        -1.37109e+06         4.34691e+07
   14.79             50524.9             67.0405        -1.36672e+06         4.33215e+07
   14.81             50402.7             67.0214         -1.3624e+06         4.31754e+07
   14.83             50282.1              67.003        -1.35813e+06         4.30306e+07
   14.85             50163.1             66.9851         -1.3539e+06         4.28872e+07
   14.87             50045.7             66.9679        -1.34971e+06         4.27452e+07
   14.89             49929.8             66.9513        -1.34557e+06         4.26045e+07
   14.91             49815.4             66.9351        -1.34147e+06         4.24652e+07
   14.93             49702.5             66.9195        -1.33741e+06         4.23271e+07
   14.95             49591.1             66.9044         -1.3334e+06         4.21904e+07
   14.97             49481.1             66.8897        -1.32943e+06          4.2055e+07
   14.99             49372.6             66.8755         -1.3255e+06         4.19209e+07
   15.01             49265.6             66.8617        -1.32161e+06         4.17881e+07
   15.03             49159.9             66.8483        -1.31777e+06         4.16565e+07
   15.05             49055.7             66.8352        -1.31396e+06         4.15262e+07
   15.07             48952.8             66.8225         -1.3102e+06         4.13971e+07
   15.09             48851.3             66.8101        -1.30647e+06         4.12693e+07
   15.11             48751.2             66.7979        -1.30279e+06         4.11427e+07
   15.13             48652.3             66.7861        -1.29914e+06         4.10173e+07
   15.15             48554.8             66.7745        -1.29554e+06         4.08931e+07
   15.17             48458.6             66.7631        -1.29197e+06         4.07701e+07
   15.19             48363.7             66.7519        -1.28844e+06         4.06482e+07
   15.21             48270.1             66.7409        -1.28494e+06         4.05276e+07
   15.23             48177.6             66.7301        -1.28149e+06         4.04081e+07
   15.25             48086.5             66.7194        -1.27807e+06         4.02897e+07
   15.27             47996.5             66.7088        -1.27469e+06         4.01725e+07
   15.29             47907.7             66.6983        -1.27134e+06         4.00563e+07
   15.31             47820.2             66.6879        -1.26803e+06         3.99413e+07
   15.33             47733.8             66.6775        -1.26475e+06         3.98274e+07
   15.35             47648.5             66.6672        -1.26151e+06         3.97146e+07
   15.37             47564.4             66.6569        -1.25831e+06         3.96029e+07
   15.39             47481.4             66.6466        -1.25514e+06         3.94922e+07
   15.41             47399.5             66.6363          -1.252e+06         3.93826e+07
   15.43             47318.7             66.6259        -1.24889e+06          3.9274e+07
   15.45               47239             66.6155        -1.24582e+06         3.91665e+07
   15.47             47160.3              66.605        -1.24279e+06           3.906e+07
   15.49             47082.7             66.5945        -1.23978e+06         3.89545e+07
   15.51             47006.1             66.5838        -1.23681e+06           3.885e+07
   15.53             46930.5              66.573        -1.23386e+06         3.87465e+07
   15.55               46856              66.562        -1.23095e+06         3.86439e+07
   15.57             46782.4             66.5509        -1.22807e+06         3.85424e+07
   15.59             46709.7             66.5396        -1.22522e+06         3.84418e+07
   15.61             46638.1             66.5282         -1.2224e+06         3.83421e+07
   15.63             46567.3             66.5165        -1.21961e+06         3.82434e+07
   15.65             46497.5             66.5046        -1.21686e+06         3.81456e+07
   15.67             46428.6             66.4924        -1.21412e+06         3.80488e+07
   15.69             46360.6               66.48        -1.21142e+06         3.79528e+07
   15.71             46293.5             66.4674        -1.20875e+06         3.78577e+07
   15.73             46227.3             66.4544         -1.2061e+06         3.77636e+07
   15.75             46161.9             66.4412        -1.20349e+06         3.76703e+07
   15.77             46097.3             66.4276         -1.2009e+06         3.75778e+07
   15.79             46033.6             66.4138        -1.19833e+06         3.74862e+07
   15.81             45970.7             66.3995         -1.1958e+06         3.73955e+07
   15.83             45908.6              66.385        -1.19329e+06         3.73056e+07
   15.85             45847.2               66.37         -1.1908e+06         3.72165e+07
   15.87             45786.7             66.3547        -1.18835e+06         3.71283e+07
   15.89             45726.9              66.339        -1.18591e+06         3.70408e+07
   15.91             45667.8             66.3229        -1.18351e+06         3.69541e+07
   15.93             45609.5             66.3064        -1.18112e+06         3.68683e+07
   15.95             45551.9             66.2895        -1.17877e+06         3.67832e+07
   15.97               45495             66.2721        -1.17643e+06         3.66989e+07
   15.99             45438.8             66.2542        -1.17412e+06         3.66153e+07
   16.01             45383.2              66.236        -1.17183e+06         3.65325e+07
   16.03             45328.4             66.2172        -1.16957e+06         3.64504e+07
   16.05             45274.2             66.1979        -1.16733e+06          3.6369e+07
   16.07             45220.6             66.1782        -1.16511e+06         3.62884e+07
   16.09             45167.7             66.1579        -1.16292e+06         3.62085e+07
   16.11             45115.4             66.1371        -1.16074e+06         3.61293e+07
   16.13             45063.7             66.1158        -1.15859e+06         3.60508e+07
   16.15             45012.5              66.094        -1.15646e+06         3.59729e+07
   16.17               44962             66.0716        -1.15435e+06         3.58958e+07
   16.19             44912.1             66.0487        -1.15226e+06         3.58193e+07
   16.21             44862.7             66.0252        -1.15019e+06         3.57434e+07
   16.23             44813.8             66.0011        -1.14814e+06         3.56682e+07
   16.25             44765.5             65.9764        -1.14611e+06         3.55937e+07
   16.27             44717.7             65.9511        -1.14411e+06         3.55198e+07
   16.29             44670.4             65.9253        -1.14212e+06         3.54465e+07
   16.31             44623.6             65.8988        -1.14015e+06         3.53738e+07
   16.33             44577.3             65.8717        -1.13819e+06         3.53017e+07
   16.35             44531.5              65.844        -1.13626e+06         3.52303e+07
   16.37             44486.2             65.8156        -1.13435e+06         3.51594e+07
   16.39             44441.3             65.7866        -1.13245e+06         3.50891e+07
   16.41             44396.9             65.7569        -1.13057e+06         3.50194e+07
   16.43             44352.9             65.7266        -1.12871e+06         3.49502e+07
   16.45             44309.3             65.6956        -1.12686e+06         3.48816e+07
   16.47             44266.2             65.6639        -1.12504e+06         3.48135e+07
   16.49             44223.4             65.6316        -1.12322e+06          3.4746e+07
   16.51             44181.1             65.5985        -1.12143e+06         3.46791e+07
   16.53             44139.1             65.5648        -1.11965e+06         3.46126e+07
   16.55             44097.5             65.5303        -1.11789e+06         3.45467e+07
   16.57             44056.3             65.4952        -1.11614e+06         3.44813e+07
   16.59             44015.5             65.4593        -1.11441e+06         3.44164e+07
   16.61               43975             65.4227        -1.11269e+06          3.4352e+07
   16.63             43934.8             65.3854        -1.11099e+06          3.4288e+07
   16.65             43894.9             65.3474         -1.1093e+06         3.42246e+07
   16.67             43855.4             65.3086        -1.10763e+06         3.41616e+07
   16.69             43816.2              65.269        -1.10597e+06         3.40992e+07
   16.71             43777.3             65.2287        -1.10433e+06         3.40371e+07
   16.73             43738.7             65.1877         -1.1027e+06         3.39756e+07
   16.75             43700.4             65.1459        -1.10108e+06         3.39144e+07
   16.77             43662.3             65.1033        -1.09948e+06         3.38538e+07
   16.79             43624.6             65.0599        -1.09789e+06         3.37935e+07
   16.81               43587             65.0158        -1.09631e+06         3.37337e+07
   16.83             43549.8             64.9709        -1.09474e+06         3.36743e+07
   16.85             43512.7             64.9252        -1.09319e+06         3.36153e+07
   16.87               43476             64.8787        -1.09165e+06         3.35567e+07
   16.89             43439.4             64.8314        -1.09012e+06         3.34986e+07
   16.91             43403.1             64.7834        -1.08861e+06         3.34408e+07
   16.93             43366.9             64.7345         -1.0871e+06         3.33834e+07
   16.95               43331             64.6848        -1.08561e+06         3.33265e+07
   16.97             43295.3             64.6343        -1.08413e+06         3.32698e+07
   16.99             43259.8             64.5829        -1.08266e+06         3.32136e+07
   17.01             43224.4             64.5308         -1.0812e+06         3.31577e+07
   17.03             43189.2             64.4778        -1.07975e+06         3.31022e+07
   17.05             43154.2             64.4241        -1.07831e+06         3.30471e+07
   17.07             43119.4             64.3695        -1.07688e+06         3.29923e+07
   17.09             43084.7              64.314        -1.07546e+06         3.29378e+07
   17.11             43050.1             64.2577        -1.07405e+06         3.28837e+07
   17.13             43015.7             64.2006        -1.07265e+06           3.283e+07
   17.15             42981.5             64.1427        -1.07127e+06         3.27765e+07
   17.17             42947.3             64.0839        -1.06989e+06         3.27234e+07
   17.19             42913.3             64.0243        -1.06852e+06         3.26706e+07
   17.21             42879.4             63.9638        -1.06715e+06         3.26181e+07
   17.23             42845.6             63.9024         -1.0658e+06         3.25659e+07
   17.25             42811.9             63.8403        -1.06446e+06         3.25141e+07
   17.27             42778.3             63.7772        -1.06313e+06         3.24625e+07
   17.29             42744.8             63.7134         -1.0618e+06         3.24112e+07
   17.31             42711.4             63.6486        -1.06048e+06         3.23603e+07
   17.33             42678.1              63.583        -1.05917e+06         3.23096e+07
   17.35             42644.8             63.5166        -1.05787e+06         3.22592e+07
   17.37             42611.7             63.4493        -1.05658e+06          3.2209e+07
   17.39             42578.5             63.3811        -1.05529e+06         3.21592e+07
   17.41             42545.5             63.3121        -1.05401e+06         3.21096e+07
   17.43             42512.5             63.2422        -1.05274e+06         3.20603e+07
   17.45             42479.5             63.1715        -1.05148e+06         3.20112e+07
   17.47             42446.6             63.0998        -1.05022e+06         3.19624e+07
   17.49             42413.7             63.0274        -1.04897e+06         3.19139e+07
   17.51             42380.9              62.954        -1.04773e+06         3.18656e+07
   17.53             42348.1             62.8798         -1.0465e+06         3.18175e+07
   17.55             42315.3             62.8048        -1.04527e+06         3.17697e+07
   17.57             42282.6             62.7289        -1.04405e+06         3.17222e+07
   17.59             42249.8             62.6521        -1.04283e+06         3.16748e+07
   17.61             42217.1             62.5744        -1.04162e+06         3.16277e+07
   17.63             42184.4             62.4959        -1.04042e+06         3.15809e+07
   17.65             42151.7             62.4165        -1.03922e+06         3.15342e+07
   17.67             42118.9             62.3363        -1.03803e+06         3.14878e+07
   17.69             42086.2             62.2552        -1.03685e+06         3.14416e+07
   17.71             42053.5             62.1732        -1.03567e+06         3.13956e+07
   17.73             42020.8             62.0904        -1.03449e+06         3.13498e+07
   17.75               41988             62.0067        -1.03333e+06         3.13043e+07
   17.77             41955.3             61.9222        -1.03217e+06         3.12589e+07
   17.79             41922.5             61.8368        -1.03101e+06         3.12138e+07
   17.81             41889.7             61.7506        -1.02986e+06         3.11688e+07
   17.83             41856.9             61.6635        -1.02871e+06         3.11241e+07
   17.85               41824             61.5756        -1.02757e+06         3.10795e+07
   17.87             41791.1             61.4868        -1.02643e+06         3.10352e+07
   17.89             41758.2             61.3971         -1.0253e+06          3.0991e+07
   17.91             41725.2             61.3067        -1.02418e+06          3.0947e+07
   17.93             41692.2             61.2153        -1.02306e+06         3.09032e+07
   17.95             41659.1             61.1232        -1.02194e+06         3.08596e+07
   17.97               41626             61.0302        -1.02083e+06         3.08162e+07
   17.99             41592.9             60.9363        -1.01972e+06         3.07729e+07
   18.01             41559.6             60.8416        -1.01862e+06         3.07299e+07
   18.03             41526.4             60.7461        -1.01752e+06          3.0687e+07
   18.05             41493.1             60.6498        -1.01643e+06         3.06443e+07
   18.07             41459.7             60.5527        -1.01534e+06         3.06017e+07
   18.09             41426.2             60.4547        -1.01425e+06         3.05593e+07
   18.11             41392.7             60.3559        -1.01317e+06         3.05171e+07
   18.13             41359.2             60.2562        -1.01209e+06         3.04751e+07
   18.15             41325.5             60.1558        -1.01102e+06         3.04332e+07
   18.17             41291.8             60.0546        -1.00995e+06         3.03915e+07
   18.19             41258.1             59.9525        -1.00889e+06         3.03499e+07
   18.21             41224.2             59.8497        -1.00783e+06         3.03085e+07
   18.23             41190.3              59.746        -1.00677e+06         3.02673e+07
   18.25             41156.3             59.6416        -1.00572e+06         3.02262e+07
   18.27             41122.2             59.5363        -1.00467e+06         3.01853e+07
   18.29             41088.1             59.4303        -1.00362e+06         3.01445e+07
   18.31             41053.8             59.3235        -1.00258e+06         3.01039e+07
   18.33             41019.5             59.2159        -1.00154e+06         3.00634e+07
   18.35             40985.1             59.1075         -1.0005e+06         3.00231e+07
   18.37             40950.6             58.9984             -999472          2.9983e+07
   18.39               40916             58.8885             -998444         2.99429e+07
   18.41             40881.4             58.7778             -997419         2.99031e+07
   18.43             40846.6             58.6664             -996397         2.98634e+07
   18.45             40811.8             58.5542             -995379         2.98238e+07
   18.47             40776.9             58.4413             -994364         2.97844e+07
   18.49             40741.9             58.3276             -993353         2.97451e+07
   18.51             40706.8             58.2132             -992345         2.97059e+07
   18.53             40671.6              58.098             -991339         2.96669e+07
   18.55             40636.3             57.9821             -990338         2.96281e+07
   18.57             40600.9             57.8655             -989339         2.95893e+07
   18.59             40565.5             57.7482             -988343         2.95508e+07
   18.61             40529.9             57.6302             -987351         2.95123e+07
   18.63             40494.3             57.5114             -986361          2.9474e+07
   18.65             40458.5              57.392             -985375         2.94359e+07
   18.67             40422.7             57.2718             -984392         2.93979e+07
   18.69             40386.7              57.151             -983412           2.936e+07
   18.71             40350.7             57.0294             -982434         2.93223e+07
   18.73             40314.6             56.9072             -981460         2.92847e+07
   18.75             40278.4             56.7843             -980489         2.92472e+07
   18.77             40242.1             56.6608             -979521         2.92099e+07
   18.79             40205.6             56.5366             -978555         2.91727e+07
   18.81             40169.1             56.4117             -977593         2.91356e+07
   18.83             40132.5             56.2862             -976634         2.90987e+07
   18.85             40095.9               56.16             -975677         2.90619e+07
   18.87             40059.1             56.0332             -974724         2.90253e+07
   18.89             40022.2             55.9057             -973773         2.89888e+07
   18.91             39985.2             55.7777             -972825         2.89524e+07
   18.93             39948.2              55.649             -971880         2.89162e+07
   18.95               39911             55.5197             -970938         2.88801e+07
   18.97             39873.7             55.3897             -969999         2.88441e+07
   18.99             39836.4             55.2592             -969063         2.88083e+07
   19.01               39799             55.1281             -968129         2.87726e+07
   19.03             39761.4             54.9964             -967199         2.87371e+07
   19.05             39723.8             54.8641             -966271         2.87017e+07
   19.07             39686.1             54.7313             -965346         2.86664e+07
   19.09             39648.3             54.5979             -964425         2.86313e+07
   19.11             39610.4             54.4639             -963505         2.85963e+07
   19.13             39572.5             54.3294             -962589         2.85615e+07
   19.15             39534.4             54.1943             -961676         2.85268e+07
   19.17             39496.3             54.0587             -960766         2.84922e+07
   19.19               39458             53.9225             -959858         2.84578e+07
   19.21             39419.7             53.7858             -958953         2.84235e+07
   19.23             39381.3             53.6487             -958052         2.83893e+07
   19.25             39342.9              53.511             -957153         2.83553e+07
   19.27             39304.3             53.3728             -956257         2.83215e+07
   19.29             39265.7              53.234             -955364         2.82877e+07
   19.31             39226.9             53.0949             -954474         2.82542e+07
   19.33             39188.1             52.9552             -953587         2.82207e+07
   19.35             39149.3              52.815             -952702         2.81874e+07
   19.37             39110.3             52.6744             -951821         2.81543e+07
   19.39             39071.3             52.5334             -950943         2.81213e+07
   19.41             39032.2             52.3918             -950067         2.80885e+07
   19.43               38993             52.2499             -949195         2.80558e+07
   19.45             38953.7             52.1075             -948326         2.80232e+07
   19.47             38914.4             51.9646             -947459         2.79908e+07
   19.49               38875             51.8214             -946596         2.79585e+07
   19.51             38835.5             51.6777             -945735         2.79264e+07
   19.53               38796             51.5337             -944878         2.78945e+07
   19.55             38756.4             51.3892             -944024         2.78626e+07
   19.57             38716.7             51.2443             -943173          2.7831e+07
   19.59               38677             51.0991             -942324         2.77995e+07
   19.61             38637.2             50.9535             -941479         2.77681e+07
   19.63             38597.4             50.8075             -940637         2.77369e+07
   19.65             38557.5             50.6611             -939798         2.77059e+07
   19.67             38517.5             50.5145             -938963          2.7675e+07
   19.69             38477.5             50.3674             -938130         2.76442e+07
   19.71             38437.4             50.2201             -937301         2.76137e+07
   19.73             38397.2             50.0724             -936474         2.75832e+07
   19.75             38357.1             49.9243             -935651          2.7553e+07
   19.77             38316.8              49.776             -934831         2.75229e+07
   19.79             38276.5             49.6274             -934015         2.74929e+07
   19.81             38236.2             49.4784             -933201         2.74631e+07
   19.83             38195.8             49.3292             -932391         2.74335e+07
   19.85             38155.3             49.1797             -931584         2.74041e+07
   19.87             38114.8               49.03             -930780         2.73748e+07
   19.89             38074.3             48.8799             -929980         2.73456e+07
   19.91             38033.7             48.7296             -929182         2.73167e+07
   19.93             37993.1             48.5791             -928389         2.72878e+07
   19.95             37952.5             48.4283             -927598         2.72592e+07
   19.97             37911.8             48.2773             -926811         2.72307e+07
   19.99               37871             48.1261             -926027         2.72024e+07
