## w(eV)         sigma(Sm^-1)     kappa(W(mK)^-1)        L12/e(Am^-1)      L22/e^2(Wm^-1)
    0.01              538202             858.544        -1.10683e+07         3.08954e+08
    0.03              538197             858.533        -1.10682e+07         3.08952e+08
    0.05              538188             858.513        -1.10681e+07         3.08949e+08
    0.07              538174             858.481        -1.10679e+07         3.08944e+08
    0.09              538156             858.439        -1.10676e+07         3.08937e+08
    0.11              538134             858.387        -1.10673e+07         3.08928e+08
    0.13              538107             858.324        -1.10669e+07         3.08918e+08
    0.15              538075              858.25        -1.10665e+07         3.08906e+08
    0.17              538039             858.166        -1.10659e+07         3.08892e+08
    0.19              537998             858.072        -1.10654e+07         3.08876e+08
    0.21              537953             857.967        -1.10647e+07         3.08859e+08
    0.23              537903             857.852         -1.1064e+07          3.0884e+08
    0.25              537849             857.726        -1.10633e+07         3.08819e+08
    0.27              537791              857.59        -1.10624e+07         3.08797e+08
    0.29              537727             857.443        -1.10615e+07         3.08773e+08
    0.31              537660             857.286        -1.10606e+07         3.08747e+08
    0.33              537587             857.118        -1.10595e+07         3.08719e+08
    0.35              537511              856.94        -1.10584e+07          3.0869e+08
    0.37              537429             856.752        -1.10573e+07         3.08659e+08
    0.39              537344             856.553        -1.10561e+07         3.08626e+08
    0.41              537253             856.344        -1.10548e+07         3.08592e+08
    0.43              537159             856.124        -1.10534e+07         3.08555e+08
    0.45              537059             855.894         -1.1052e+07         3.08517e+08
    0.47              536956             855.654        -1.10505e+07         3.08478e+08
    0.49              536847             855.403         -1.1049e+07         3.08436e+08
    0.51              536735             855.142        -1.10474e+07         3.08393e+08
    0.53              536617              854.87        -1.10457e+07         3.08348e+08
    0.55              536496             854.588         -1.1044e+07         3.08302e+08
    0.57              536369             854.296        -1.10422e+07         3.08253e+08
    0.59              536239             853.994        -1.10403e+07         3.08203e+08
    0.61              536103             853.681        -1.10384e+07         3.08151e+08
    0.63              535964             853.358        -1.10364e+07         3.08098e+08
    0.65              535819             853.025        -1.10343e+07         3.08043e+08
    0.67              535671             852.681        -1.10322e+07         3.07986e+08
    0.69              535517             852.327          -1.103e+07         3.07927e+08
    0.71              535360             851.963        -1.10277e+07         3.07866e+08
    0.73              535197             851.589        -1.10254e+07         3.07804e+08
    0.75              535031             851.204         -1.1023e+07          3.0774e+08
    0.77              534860              850.81        -1.10206e+07         3.07675e+08
    0.79              534684             850.405        -1.10181e+07         3.07607e+08
    0.81              534504              849.99        -1.10155e+07         3.07538e+08
    0.83              534319             849.565        -1.10129e+07         3.07468e+08
    0.85              534130              849.13        -1.10102e+07         3.07395e+08
    0.87              533937             848.684        -1.10074e+07         3.07321e+08
    0.89              533739             848.229        -1.10045e+07         3.07245e+08
    0.91              533536             847.764        -1.10016e+07         3.07167e+08
    0.93              533330             847.288        -1.09987e+07         3.07088e+08
    0.95              533118             846.803        -1.09956e+07         3.07006e+08
    0.97              532902             846.307        -1.09925e+07         3.06923e+08
    0.99              532682             845.802        -1.09894e+07         3.06839e+08
    1.01              532457             845.287        -1.09861e+07         3.06752e+08
    1.03              532228             844.761        -1.09829e+07         3.06664e+08
    1.05              531995             844.226        -1.09795e+07         3.06574e+08
    1.07              531757             843.681        -1.09761e+07         3.06483e+08
    1.09              531514             843.126        -1.09726e+07         3.06389e+08
    1.11              531267             842.561         -1.0969e+07         3.06294e+08
    1.13              531016             841.987        -1.09654e+07         3.06198e+08
    1.15              530760             841.402        -1.09617e+07         3.06099e+08
    1.17              530500             840.808         -1.0958e+07         3.05999e+08
    1.19              530235             840.204        -1.09541e+07         3.05897e+08
    1.21              529966             839.591        -1.09503e+07         3.05793e+08
    1.23              529693             838.968        -1.09463e+07         3.05688e+08
    1.25              529415             838.335        -1.09423e+07          3.0558e+08
    1.27              529133             837.692        -1.09382e+07         3.05471e+08
    1.29              528846              837.04        -1.09341e+07         3.05361e+08
    1.31              528555             836.378        -1.09299e+07         3.05248e+08
    1.33              528259             835.707        -1.09256e+07         3.05134e+08
    1.35              527959             835.026        -1.09212e+07         3.05018e+08
    1.37              527655             834.336        -1.09168e+07         3.04901e+08
    1.39              527346             833.636        -1.09124e+07         3.04781e+08
    1.41              527033             832.927        -1.09078e+07          3.0466e+08
    1.43              526716             832.208        -1.09032e+07         3.04537e+08
    1.45              526394              831.48        -1.08985e+07         3.04413e+08
    1.47              526068             830.742        -1.08938e+07         3.04286e+08
    1.49              525737             829.996         -1.0889e+07         3.04158e+08
    1.51              525402              829.24        -1.08841e+07         3.04029e+08
    1.53              525063             828.474        -1.08792e+07         3.03897e+08
    1.55              524719               827.7        -1.08742e+07         3.03764e+08
    1.57              524371             826.916        -1.08691e+07         3.03629e+08
    1.59              524019             826.123        -1.08639e+07         3.03492e+08
    1.61              523662             825.321        -1.08587e+07         3.03353e+08
    1.63              523301              824.51        -1.08535e+07         3.03213e+08
    1.65              522936              823.69        -1.08481e+07         3.03071e+08
    1.67              522566             822.861        -1.08427e+07         3.02927e+08
    1.69              522192             822.022        -1.08373e+07         3.02782e+08
    1.71              521814             821.175        -1.08317e+07         3.02635e+08
    1.73              521431             820.319        -1.08261e+07         3.02486e+08
    1.75              521044             819.454        -1.08204e+07         3.02335e+08
    1.77              520653              818.58        -1.08147e+07         3.02183e+08
    1.79              520257             817.698        -1.08089e+07         3.02028e+08
    1.81              519857             816.806         -1.0803e+07         3.01872e+08
    1.83              519453             815.906        -1.07971e+07         3.01715e+08
    1.85              519044             814.997        -1.07911e+07         3.01555e+08
    1.87              518632             814.079         -1.0785e+07         3.01394e+08
    1.89              518215             813.153        -1.07788e+07         3.01231e+08
    1.91              517793             812.218        -1.07726e+07         3.01067e+08
    1.93              517368             811.274        -1.07663e+07           3.009e+08
    1.95              516938             810.322          -1.076e+07         3.00732e+08
    1.97              516504             809.362        -1.07536e+07         3.00562e+08
    1.99              516066             808.393        -1.07471e+07          3.0039e+08
    2.01              515623             807.416        -1.07406e+07         3.00217e+08
    2.03              515176              806.43        -1.07339e+07         3.00042e+08
    2.05              514725             805.436        -1.07273e+07         2.99865e+08
    2.07              514270             804.433        -1.07205e+07         2.99686e+08
    2.09              513811             803.423        -1.07137e+07         2.99506e+08
    2.11              513347             802.404        -1.07068e+07         2.99323e+08
    2.13              512879             801.377        -1.06998e+07          2.9914e+08
    2.15              512407             800.341        -1.06928e+07         2.98954e+08
    2.17              511931             799.298        -1.06857e+07         2.98766e+08
    2.19              511450             798.246        -1.06786e+07         2.98577e+08
    2.21              510966             797.187        -1.06713e+07         2.98386e+08
    2.23              510477              796.12         -1.0664e+07         2.98194e+08
    2.25              509984             795.044        -1.06567e+07         2.97999e+08
    2.27              509487             793.961        -1.06492e+07         2.97803e+08
    2.29              508985              792.87        -1.06417e+07         2.97605e+08
    2.31              508480             791.771        -1.06342e+07         2.97405e+08
    2.33              507970             790.664        -1.06265e+07         2.97204e+08
    2.35              507457              789.55        -1.06188e+07         2.97001e+08
    2.37              506939             788.428         -1.0611e+07         2.96796e+08
    2.39              506417             787.298        -1.06032e+07         2.96589e+08
    2.41              505891             786.161        -1.05953e+07          2.9638e+08
    2.43              505361             785.016        -1.05873e+07          2.9617e+08
    2.45              504826             783.863        -1.05792e+07         2.95958e+08
    2.47              504288             782.703        -1.05711e+07         2.95744e+08
    2.49              503746             781.536        -1.05629e+07         2.95529e+08
    2.51              503199             780.361        -1.05547e+07         2.95312e+08
    2.53              502648             779.179        -1.05464e+07         2.95093e+08
    2.55              502094              777.99         -1.0538e+07         2.94872e+08
    2.57              501535             776.793        -1.05295e+07         2.94649e+08
    2.59              500972             775.589         -1.0521e+07         2.94425e+08
    2.61              500406             774.378        -1.05124e+07         2.94199e+08
    2.63              499835              773.16        -1.05037e+07         2.93971e+08
    2.65              499260             771.935        -1.04949e+07         2.93741e+08
    2.67              498681             770.703        -1.04861e+07          2.9351e+08
    2.69              498098             769.464        -1.04773e+07         2.93277e+08
    2.71              497511             768.218        -1.04683e+07         2.93042e+08
    2.73              496921             766.965        -1.04593e+07         2.92806e+08
    2.75              496326             765.705        -1.04502e+07         2.92567e+08
    2.77              495727             764.438         -1.0441e+07         2.92327e+08
    2.79              495124             763.165        -1.04318e+07         2.92085e+08
    2.81              494518             761.885        -1.04225e+07         2.91841e+08
    2.83              493907             760.598        -1.04131e+07         2.91596e+08
    2.85              493292             759.305        -1.04037e+07         2.91349e+08
    2.87              492674             758.005        -1.03942e+07           2.911e+08
    2.89              492051             756.698        -1.03846e+07         2.90849e+08
    2.91              491425             755.385         -1.0375e+07         2.90597e+08
    2.93              490795             754.066        -1.03653e+07         2.90343e+08
    2.95              490161              752.74        -1.03555e+07         2.90087e+08
    2.97              489523             751.408        -1.03456e+07         2.89829e+08
    2.99              488881              750.07        -1.03357e+07         2.89569e+08
    3.01              488235             748.726        -1.03257e+07         2.89308e+08
    3.03              487586             747.375        -1.03157e+07         2.89045e+08
    3.05              486932             746.018        -1.03055e+07          2.8878e+08
    3.07              486275             744.655        -1.02953e+07         2.88514e+08
    3.09              485614             743.286         -1.0285e+07         2.88245e+08
    3.11              484949             741.911        -1.02747e+07         2.87975e+08
    3.13              484280              740.53        -1.02643e+07         2.87703e+08
    3.15              483608             739.143        -1.02538e+07          2.8743e+08
    3.17              482931             737.751        -1.02433e+07         2.87154e+08
    3.19              482251             736.352        -1.02326e+07         2.86877e+08
    3.21              481568             734.948        -1.02219e+07         2.86598e+08
    3.23              480880             733.538        -1.02112e+07         2.86318e+08
    3.25              480189             732.122        -1.02003e+07         2.86035e+08
    3.27              479494             730.701        -1.01894e+07         2.85751e+08
    3.29              478795             729.274        -1.01785e+07         2.85465e+08
    3.31              478092             727.842        -1.01674e+07         2.85178e+08
    3.33              477386             726.404        -1.01563e+07         2.84888e+08
    3.35              476676             724.961        -1.01451e+07         2.84597e+08
    3.37              475963             723.513        -1.01339e+07         2.84304e+08
    3.39              475246             722.059        -1.01226e+07         2.84009e+08
    3.41              474525               720.6        -1.01112e+07         2.83713e+08
    3.43              473800             719.136        -1.00997e+07         2.83415e+08
    3.45              473072             717.666        -1.00882e+07         2.83115e+08
    3.47              472341             716.192        -1.00766e+07         2.82813e+08
    3.49              471605             714.712        -1.00649e+07          2.8251e+08
    3.51              470866             713.227        -1.00532e+07         2.82204e+08
    3.53              470124             711.738        -1.00413e+07         2.81897e+08
    3.55              469378             710.243        -1.00295e+07         2.81589e+08
    3.57              468628             708.744        -1.00175e+07         2.81278e+08
    3.59              467875             707.239        -1.00055e+07         2.80966e+08
    3.61              467118              705.73         -9.9934e+06         2.80652e+08
    3.63              466358             704.217        -9.98124e+06         2.80336e+08
    3.65              465594             702.698          -9.969e+06         2.80018e+08
    3.67              464827             701.175         -9.9567e+06         2.79699e+08
    3.69              464056             699.648        -9.94433e+06         2.79378e+08
    3.71              463282             698.115        -9.93189e+06         2.79055e+08
    3.73              462504             696.579        -9.91938e+06         2.78731e+08
    3.75              461723             695.038         -9.9068e+06         2.78405e+08
    3.77              460938             693.492        -9.89415e+06         2.78077e+08
    3.79              460150             691.942        -9.88143e+06         2.77747e+08
    3.81              459359             690.388        -9.86864e+06         2.77415e+08
    3.83              458564              688.83        -9.85578e+06         2.77082e+08
    3.85              457765             687.267        -9.84285e+06         2.76747e+08
    3.87              456964             685.701        -9.82986e+06          2.7641e+08
    3.89              456159              684.13        -9.81679e+06         2.76072e+08
    3.91              455351             682.555        -9.80365e+06         2.75732e+08
    3.93              454539             680.976        -9.79045e+06          2.7539e+08
    3.95              453724             679.394        -9.77717e+06         2.75046e+08
    3.97              452906             677.807        -9.76383e+06         2.74701e+08
    3.99              452084             676.217        -9.75041e+06         2.74354e+08
    4.01              451259             674.622        -9.73693e+06         2.74005e+08
    4.03              450431             673.024        -9.72338e+06         2.73654e+08
    4.05              449600             671.423        -9.70976e+06         2.73302e+08
    4.07              448765             669.817        -9.69607e+06         2.72948e+08
    4.09              447928             668.208        -9.68231e+06         2.72592e+08
    4.11              447087             666.596        -9.66848e+06         2.72234e+08
    4.13              446242              664.98        -9.65459e+06         2.71875e+08
    4.15              445395              663.36        -9.64062e+06         2.71514e+08
    4.17              444545             661.738        -9.62659e+06         2.71151e+08
    4.19              443691             660.111        -9.61249e+06         2.70787e+08
    4.21              442834             658.482        -9.59832e+06         2.70421e+08
    4.23              441974             656.849        -9.58408e+06         2.70053e+08
    4.25              441111             655.213        -9.56978e+06         2.69683e+08
    4.27              440245             653.574         -9.5554e+06         2.69312e+08
    4.29              439376             651.931        -9.54096e+06         2.68939e+08
    4.31              438504             650.286        -9.52645e+06         2.68564e+08
    4.33              437629             648.637        -9.51187e+06         2.68188e+08
    4.35              436750             646.986        -9.49723e+06          2.6781e+08
    4.37              435869             645.332        -9.48251e+06          2.6743e+08
    4.39              434985             643.674        -9.46773e+06         2.67048e+08
    4.41              434097             642.014        -9.45288e+06         2.66665e+08
    4.43              433207             640.351        -9.43797e+06          2.6628e+08
    4.45              432314             638.686        -9.42299e+06         2.65894e+08
    4.47              431418             637.018        -9.40794e+06         2.65505e+08
    4.49              430519             635.347        -9.39282e+06         2.65115e+08
    4.51              429617             633.673        -9.37764e+06         2.64724e+08
    4.53              428712             631.997        -9.36239e+06          2.6433e+08
    4.55              427805             630.318        -9.34707e+06         2.63935e+08
    4.57              426894             628.637        -9.33169e+06         2.63538e+08
    4.59              425981             626.954        -9.31624e+06          2.6314e+08
    4.61              425065             625.268        -9.30073e+06          2.6274e+08
    4.63              424146             623.579        -9.28515e+06         2.62338e+08
    4.65              423224             621.889         -9.2695e+06         2.61935e+08
    4.67              422300             620.196        -9.25379e+06         2.61529e+08
    4.69              421373             618.501        -9.23801e+06         2.61123e+08
    4.71              420443             616.804        -9.22217e+06         2.60714e+08
    4.73              419510             615.105        -9.20626e+06         2.60304e+08
    4.75              418575             613.404        -9.19028e+06         2.59892e+08
    4.77              417637             611.701        -9.17425e+06         2.59479e+08
    4.79              416696             609.995        -9.15814e+06         2.59064e+08
    4.81              415753             608.288        -9.14197e+06         2.58647e+08
    4.83              414807             606.579        -9.12574e+06         2.58229e+08
    4.85              413859             604.869        -9.10945e+06         2.57809e+08
    4.87              412908             603.156        -9.09308e+06         2.57387e+08
    4.89              411954             601.442        -9.07666e+06         2.56964e+08
    4.91              410998             599.726        -9.06017e+06         2.56539e+08
    4.93              410039             598.008        -9.04362e+06         2.56112e+08
    4.95              409078             596.289        -9.02701e+06         2.55684e+08
    4.97              408115             594.568        -9.01033e+06         2.55254e+08
    4.99              407148             592.846        -8.99359e+06         2.54823e+08
    5.01              406180             591.122        -8.97678e+06          2.5439e+08
    5.03              405209             589.396        -8.95992e+06         2.53955e+08
    5.05              404235              587.67        -8.94299e+06         2.53519e+08
    5.07              403260             585.942          -8.926e+06         2.53081e+08
    5.09              402281             584.213        -8.90894e+06         2.52642e+08
    5.11              401301             582.482        -8.89183e+06         2.52201e+08
    5.13              400318              580.75        -8.87465e+06         2.51758e+08
    5.15              399333             579.017        -8.85742e+06         2.51314e+08
    5.17              398345             577.283        -8.84012e+06         2.50868e+08
    5.19              397356             575.548        -8.82276e+06         2.50421e+08
    5.21              396364             573.812        -8.80534e+06         2.49972e+08
    5.23              395369             572.075        -8.78786e+06         2.49522e+08
    5.25              394373             570.337        -8.77032e+06          2.4907e+08
    5.27              393374             568.597        -8.75272e+06         2.48616e+08
    5.29              392373             566.857        -8.73506e+06         2.48161e+08
    5.31              391370             565.117        -8.71734e+06         2.47704e+08
    5.33              390365             563.375        -8.69956e+06         2.47246e+08
    5.35              389358             561.633        -8.68173e+06         2.46786e+08
    5.37              388349              559.89        -8.66383e+06         2.46325e+08
    5.39              387337             558.146        -8.64588e+06         2.45862e+08
    5.41              386324             556.402        -8.62787e+06         2.45398e+08
    5.43              385309             554.657         -8.6098e+06         2.44932e+08
    5.45              384291             552.911        -8.59167e+06         2.44464e+08
    5.47              383272             551.165        -8.57348e+06         2.43995e+08
    5.49              382250             549.419        -8.55524e+06         2.43525e+08
    5.51              381227             547.672        -8.53694e+06         2.43053e+08
    5.53              380202             545.925        -8.51859e+06          2.4258e+08
    5.55              379174             544.177        -8.50018e+06         2.42105e+08
    5.57              378145             542.429        -8.48171e+06         2.41628e+08
    5.59              377115             540.681        -8.46319e+06         2.41151e+08
    5.61              376082             538.932        -8.44461e+06         2.40671e+08
    5.63              375047             537.184        -8.42598e+06         2.40191e+08
    5.65              374011             535.435        -8.40729e+06         2.39708e+08
    5.67              372973             533.686        -8.38855e+06         2.39225e+08
    5.69              371933             531.937        -8.36975e+06          2.3874e+08
    5.71              370891             530.188         -8.3509e+06         2.38253e+08
    5.73              369848             528.439          -8.332e+06         2.37765e+08
    5.75              368803              526.69        -8.31305e+06         2.37276e+08
    5.77              367757             524.941        -8.29404e+06         2.36785e+08
    5.79              366708             523.193        -8.27498e+06         2.36293e+08
    5.81              365659             521.444        -8.25586e+06         2.35799e+08
    5.83              364607             519.695         -8.2367e+06         2.35304e+08
    5.85              363554             517.947        -8.21748e+06         2.34808e+08
    5.87              362500             516.199        -8.19821e+06          2.3431e+08
    5.89              361444             514.452        -8.17889e+06         2.33811e+08
    5.91              360386             512.704        -8.15953e+06          2.3331e+08
    5.93              359327             510.958        -8.14011e+06         2.32808e+08
    5.95              358267             509.211        -8.12064e+06         2.32305e+08
    5.97              357205             507.465        -8.10112e+06           2.318e+08
    5.99              356142             505.719        -8.08155e+06         2.31294e+08
    6.01              355077             503.974        -8.06194e+06         2.30787e+08
    6.03              354011              502.23        -8.04227e+06         2.30279e+08
    6.05              352944             500.486        -8.02256e+06         2.29769e+08
    6.07              351875             498.743         -8.0028e+06         2.29257e+08
    6.09              350805                 497          -7.983e+06         2.28745e+08
    6.11              349734             495.258        -7.96315e+06         2.28231e+08
    6.13              348662             493.517        -7.94325e+06         2.27716e+08
    6.15              347588             491.777         -7.9233e+06           2.272e+08
    6.17              346513             490.037        -7.90331e+06         2.26682e+08
    6.19              345438             488.298        -7.88327e+06         2.26163e+08
    6.21              344361             486.561        -7.86319e+06         2.25643e+08
    6.23              343282             484.824        -7.84307e+06         2.25121e+08
    6.25              342203             483.088         -7.8229e+06         2.24599e+08
    6.27              341123             481.353        -7.80269e+06         2.24075e+08
    6.29              340041             479.619        -7.78243e+06          2.2355e+08
    6.31              338959             477.886        -7.76213e+06         2.23023e+08
    6.33              337876             476.154        -7.74179e+06         2.22496e+08
    6.35              336792             474.423        -7.72141e+06         2.21967e+08
    6.37              335706             472.693        -7.70099e+06         2.21437e+08
    6.39              334620             470.965        -7.68052e+06         2.20906e+08
    6.41              333533             469.238        -7.66002e+06         2.20374e+08
    6.43              332445             467.512        -7.63947e+06         2.19841e+08
    6.45              331357             465.787        -7.61889e+06         2.19306e+08
    6.47              330267             464.063        -7.59826e+06         2.18771e+08
    6.49              329177             462.341         -7.5776e+06         2.18234e+08
    6.51              328086             460.621         -7.5569e+06         2.17696e+08
    6.53              326994             458.901        -7.53616e+06         2.17157e+08
    6.55              325902             457.183        -7.51538e+06         2.16617e+08
    6.57              324808             455.467        -7.49457e+06         2.16076e+08
    6.59              323715             453.752        -7.47372e+06         2.15533e+08
    6.61              322620             452.039        -7.45283e+06          2.1499e+08
    6.63              321525             450.327        -7.43191e+06         2.14446e+08
    6.65              320430             448.617        -7.41095e+06           2.139e+08
    6.67              319333             446.908        -7.38996e+06         2.13354e+08
    6.69              318237             445.201        -7.36893e+06         2.12806e+08
    6.71              317140             443.496        -7.34787e+06         2.12258e+08
    6.73              316042             441.793        -7.32678e+06         2.11708e+08
    6.75              314944             440.091        -7.30565e+06         2.11158e+08
    6.77              313845             438.391        -7.28449e+06         2.10606e+08
    6.79              312746             436.693         -7.2633e+06         2.10054e+08
    6.81              311647             434.996        -7.24208e+06         2.09501e+08
    6.83              310547             433.302        -7.22083e+06         2.08946e+08
    6.85              309448             431.609        -7.19955e+06         2.08391e+08
    6.87              308347             429.919        -7.17824e+06         2.07835e+08
    6.89              307247              428.23         -7.1569e+06         2.07277e+08
    6.91              306146             426.543        -7.13553e+06         2.06719e+08
    6.93              305045             424.859        -7.11413e+06          2.0616e+08
    6.95              303944             423.176         -7.0927e+06         2.05601e+08
    6.97              302843             421.496        -7.07125e+06          2.0504e+08
    6.99              301742             419.817        -7.04977e+06         2.04478e+08
    7.01              300640             418.141        -7.02826e+06         2.03916e+08
    7.03              299539             416.467        -7.00673e+06         2.03353e+08
    7.05              298437             414.795        -6.98518e+06         2.02789e+08
    7.07              297335             413.125        -6.96359e+06         2.02224e+08
    7.09              296234             411.457        -6.94199e+06         2.01658e+08
    7.11              295132             409.792        -6.92036e+06         2.01092e+08
    7.13              294031             408.129        -6.89871e+06         2.00524e+08
    7.15              292929             406.469        -6.87703e+06         1.99956e+08
    7.17              291828             404.811        -6.85534e+06         1.99388e+08
    7.19              290727             403.155        -6.83362e+06         1.98818e+08
    7.21              289626             401.501        -6.81188e+06         1.98248e+08
    7.23              288525              399.85        -6.79012e+06         1.97677e+08
    7.25              287425             398.202        -6.76835e+06         1.97105e+08
    7.27              286324             396.556        -6.74655e+06         1.96533e+08
    7.29              285224             394.912        -6.72473e+06          1.9596e+08
    7.31              284125             393.271         -6.7029e+06         1.95386e+08
    7.33              283025             391.633        -6.68105e+06         1.94812e+08
    7.35              281926             389.997        -6.65918e+06         1.94237e+08
    7.37              280828             388.364        -6.63729e+06         1.93661e+08
    7.39              279729             386.733        -6.61539e+06         1.93085e+08
    7.41              278632             385.105        -6.59348e+06         1.92509e+08
    7.43              277534              383.48        -6.57154e+06         1.91931e+08
    7.45              276437             381.857         -6.5496e+06         1.91353e+08
    7.47              275341             380.238        -6.52764e+06         1.90775e+08
    7.49              274245             378.621        -6.50567e+06         1.90196e+08
    7.51              273150             377.007        -6.48369e+06         1.89616e+08
    7.53              272056             375.395        -6.46169e+06         1.89036e+08
    7.55              270962             373.787        -6.43968e+06         1.88455e+08
    7.57              269869             372.181        -6.41767e+06         1.87874e+08
    7.59              268776             370.579        -6.39564e+06         1.87293e+08
    7.61              267684             368.979         -6.3736e+06         1.86711e+08
    7.63              266593             367.382        -6.35156e+06         1.86128e+08
    7.65              265503             365.788         -6.3295e+06         1.85546e+08
    7.67              264413             364.197        -6.30744e+06         1.84962e+08
    7.69              263324              362.61        -6.28537e+06         1.84379e+08
    7.71              262236             361.025         -6.2633e+06         1.83794e+08
    7.73              261149             359.443        -6.24122e+06          1.8321e+08
    7.75              260063             357.865        -6.21913e+06         1.82625e+08
    7.77              258978             356.289        -6.19704e+06          1.8204e+08
    7.79              257894             354.717        -6.17494e+06         1.81454e+08
    7.81              256810             353.148        -6.15284e+06         1.80869e+08
    7.83              255728             351.582        -6.13074e+06         1.80282e+08
    7.85              254647             350.019        -6.10864e+06         1.79696e+08
    7.87              253567             348.459        -6.08653e+06         1.79109e+08
    7.89              252488             346.903        -6.06442e+06         1.78522e+08
    7.91              251410              345.35        -6.04231e+06         1.77935e+08
    7.93              250333               343.8        -6.02021e+06         1.77348e+08
    7.95              249257             342.254         -5.9981e+06          1.7676e+08
    7.97              248183             340.711        -5.97599e+06         1.76172e+08
    7.99              247110             339.171        -5.95389e+06         1.75584e+08
    8.01              246038             337.635        -5.93179e+06         1.74996e+08
    8.03              244967             336.102        -5.90969e+06         1.74408e+08
    8.05              243898             334.573        -5.88759e+06         1.73819e+08
    8.07              242830             333.047         -5.8655e+06          1.7323e+08
    8.09              241763             331.524        -5.84342e+06         1.72642e+08
    8.11              240698             330.005        -5.82134e+06         1.72053e+08
    8.13              239634              328.49        -5.79926e+06         1.71464e+08
    8.15              238571             326.978         -5.7772e+06         1.70875e+08
    8.17              237510             325.469        -5.75514e+06         1.70286e+08
    8.19              236451             323.965        -5.73308e+06         1.69697e+08
    8.21              235393             322.463        -5.71104e+06         1.69108e+08
    8.23              234336             320.966        -5.68901e+06         1.68519e+08
    8.25              233281             319.472        -5.66698e+06         1.67929e+08
    8.27              232228             317.982        -5.64497e+06          1.6734e+08
    8.29              231176             316.495        -5.62296e+06         1.66751e+08
    8.31              230126             315.012        -5.60097e+06         1.66162e+08
    8.33              229078             313.533        -5.57899e+06         1.65573e+08
    8.35              228031             312.058        -5.55703e+06         1.64985e+08
    8.37              226986             310.586        -5.53507e+06         1.64396e+08
    8.39              225943             309.118        -5.51313e+06         1.63807e+08
    8.41              224901             307.654        -5.49121e+06         1.63219e+08
    8.43              223861             306.194         -5.4693e+06         1.62631e+08
    8.45              222824             304.738        -5.44741e+06         1.62042e+08
    8.47              221787             303.285        -5.42553e+06         1.61454e+08
    8.49              220753             301.837        -5.40367e+06         1.60867e+08
    8.51              219721             300.392        -5.38183e+06         1.60279e+08
    8.53              218691             298.951        -5.36001e+06         1.59692e+08
    8.55              217662             297.514         -5.3382e+06         1.59105e+08
    8.57              216636             296.081        -5.31642e+06         1.58518e+08
    8.59              215611             294.652        -5.29465e+06         1.57931e+08
    8.61              214589             293.228        -5.27291e+06         1.57345e+08
    8.63              213568             291.807        -5.25119e+06         1.56759e+08
    8.65              212550              290.39        -5.22948e+06         1.56173e+08
    8.67              211533             288.977        -5.20781e+06         1.55588e+08
    8.69              210519             287.568        -5.18615e+06         1.55003e+08
    8.71              209507             286.164        -5.16452e+06         1.54419e+08
    8.73              208497             284.763        -5.14291e+06         1.53834e+08
    8.75              207490             283.367        -5.12133e+06         1.53251e+08
    8.77              206484             281.975        -5.09977e+06         1.52667e+08
    8.79              205481             280.586        -5.07824e+06         1.52084e+08
    8.81              204480             279.203        -5.05674e+06         1.51502e+08
    8.83              203481             277.823        -5.03526e+06          1.5092e+08
    8.85              202484             276.447        -5.01381e+06         1.50338e+08
    8.87              201490             275.076        -4.99239e+06         1.49757e+08
    8.89              200498             273.709          -4.971e+06         1.49176e+08
    8.91              199509             272.346        -4.94964e+06         1.48596e+08
    8.93              198522             270.988        -4.92831e+06         1.48017e+08
    8.95              197537             269.634        -4.90701e+06         1.47438e+08
    8.97              196555             268.284        -4.88574e+06         1.46859e+08
    8.99              195575             266.938         -4.8645e+06         1.46282e+08
    9.01              194598             265.597         -4.8433e+06         1.45704e+08
    9.03              193623              264.26        -4.82213e+06         1.45128e+08
    9.05              192650             262.928        -4.80099e+06         1.44552e+08
    9.07              191681               261.6        -4.77988e+06         1.43977e+08
    9.09              190713             260.276        -4.75882e+06         1.43402e+08
    9.11              189749             258.957        -4.73778e+06         1.42828e+08
    9.13              188787             257.642        -4.71679e+06         1.42255e+08
    9.15              187827             256.332        -4.69582e+06         1.41682e+08
    9.17              186870             255.026         -4.6749e+06          1.4111e+08
    9.19              185916             253.724        -4.65401e+06         1.40539e+08
    9.21              184965             252.428        -4.63317e+06         1.39969e+08
    9.23              184016             251.135        -4.61236e+06         1.39399e+08
    9.25              183070             249.847        -4.59159e+06         1.38831e+08
    9.27              182127             248.564        -4.57086e+06         1.38263e+08
    9.29              181186             247.285        -4.55017e+06         1.37695e+08
    9.31              180248             246.011        -4.52952e+06         1.37129e+08
    9.33              179313             244.742        -4.50891e+06         1.36564e+08
    9.35              178381             243.477        -4.48835e+06         1.35999e+08
    9.37              177452             242.217        -4.46782e+06         1.35435e+08
    9.39              176525             240.961        -4.44734e+06         1.34872e+08
    9.41              175602              239.71        -4.42691e+06          1.3431e+08
    9.43              174681             238.463        -4.40651e+06         1.33749e+08
    9.45              173763             237.222        -4.38617e+06         1.33189e+08
    9.47              172848             235.985        -4.36586e+06          1.3263e+08
    9.49              171936             234.753        -4.34561e+06         1.32072e+08
    9.51              171027             233.525         -4.3254e+06         1.31515e+08
    9.53              170122             232.302        -4.30523e+06         1.30958e+08
    9.55              169219             231.084        -4.28512e+06         1.30403e+08
    9.57              168319             229.871        -4.26505e+06         1.29849e+08
    9.59              167422             228.662        -4.24503e+06         1.29296e+08
    9.61              166528             227.458        -4.22505e+06         1.28744e+08
    9.63              165637             226.259        -4.20513e+06         1.28192e+08
    9.65              164749             225.065        -4.18526e+06         1.27642e+08
    9.67              163865             223.876        -4.16543e+06         1.27094e+08
    9.69              162983             222.691        -4.14566e+06         1.26546e+08
    9.71              162105             221.511        -4.12594e+06         1.25999e+08
    9.73              161230             220.336        -4.10627e+06         1.25453e+08
    9.75              160357             219.166        -4.08665e+06         1.24909e+08
    9.77              159489             218.001        -4.06709e+06         1.24366e+08
    9.79              158623             216.841        -4.04757e+06         1.23824e+08
    9.81              157760             215.686        -4.02812e+06         1.23283e+08
    9.83              156901             214.535        -4.00871e+06         1.22743e+08
    9.85              156045              213.39        -3.98936e+06         1.22205e+08
    9.87              155192             212.249        -3.97006e+06         1.21667e+08
    9.89              154343             211.114        -3.95082e+06         1.21131e+08
    9.91              153497             209.983        -3.93164e+06         1.20597e+08
    9.93              152654             208.857        -3.91251e+06         1.20063e+08
    9.95              151814             207.737        -3.89344e+06         1.19531e+08
    9.97              150978             206.621        -3.87442e+06            1.19e+08
    9.99              150145              205.51        -3.85546e+06          1.1847e+08
   10.01              149315             204.405        -3.83656e+06         1.17942e+08
   10.03              148489             203.304        -3.81772e+06         1.17415e+08
   10.05              147666             202.208        -3.79894e+06         1.16889e+08
   10.07              146846             201.118        -3.78021e+06         1.16365e+08
   10.09              146030             200.032        -3.76155e+06         1.15842e+08
   10.11              145218             198.952        -3.74294e+06          1.1532e+08
   10.13              144408             197.876         -3.7244e+06           1.148e+08
   10.15              143602             196.806        -3.70591e+06         1.14282e+08
   10.17              142800             195.741        -3.68749e+06         1.13764e+08
   10.19              142001              194.68        -3.66913e+06         1.13248e+08
   10.21              141206             193.625        -3.65083e+06         1.12734e+08
   10.23              140414             192.575        -3.63259e+06         1.12221e+08
   10.25              139625             191.531        -3.61442e+06         1.11709e+08
   10.27              138840             190.491         -3.5963e+06         1.11199e+08
   10.29              138058             189.456        -3.57825e+06          1.1069e+08
   10.31              137280             188.427        -3.56027e+06         1.10183e+08
   10.33              136506             187.403        -3.54235e+06         1.09678e+08
   10.35              135735             186.383        -3.52449e+06         1.09173e+08
   10.37              134968              185.37         -3.5067e+06         1.08671e+08
   10.39              134204             184.361        -3.48897e+06          1.0817e+08
   10.41              133443             183.357        -3.47131e+06          1.0767e+08
   10.43              132687             182.359        -3.45371e+06         1.07172e+08
   10.45              131933             181.366        -3.43618e+06         1.06676e+08
   10.47              131184             180.378        -3.41871e+06         1.06181e+08
   10.49              130438             179.395        -3.40132e+06         1.05688e+08
   10.51              129695             178.417        -3.38398e+06         1.05196e+08
   10.53              128957             177.445        -3.36672e+06         1.04706e+08
   10.55              128221             176.478        -3.34952e+06         1.04218e+08
   10.57              127490             175.516        -3.33239e+06         1.03731e+08
   10.59              126762             174.559        -3.31533e+06         1.03246e+08
   10.61              126038             173.608        -3.29834e+06         1.02762e+08
   10.63              125317             172.662        -3.28142e+06          1.0228e+08
   10.65              124600             171.721        -3.26456e+06           1.018e+08
   10.67              123887             170.785        -3.24777e+06         1.01322e+08
   10.69              123177             169.855        -3.23106e+06         1.00845e+08
   10.71              122471              168.93        -3.21441e+06          1.0037e+08
   10.73              121769              168.01        -3.19783e+06         9.98962e+07
   10.75              121070             167.096        -3.18133e+06         9.94244e+07
   10.77              120375             166.187        -3.16489e+06         9.89544e+07
   10.79              119683             165.283        -3.14852e+06         9.84861e+07
   10.81              118996             164.384        -3.13223e+06         9.80195e+07
   10.83              118312             163.491          -3.116e+06         9.75547e+07
   10.85              117632             162.603        -3.09985e+06         9.70916e+07
   10.87              116955              161.72        -3.08377e+06         9.66303e+07
   10.89              116282             160.843        -3.06776e+06         9.61707e+07
   10.91              115613             159.971        -3.05182e+06          9.5713e+07
   10.93              114948             159.104        -3.03596e+06          9.5257e+07
   10.95              114286             158.242        -3.02016e+06         9.48027e+07
   10.97              113628             157.386        -3.00444e+06         9.43503e+07
   10.99              112973             156.535        -2.98879e+06         9.38997e+07
   11.01              112323              155.69        -2.97322e+06         9.34509e+07
   11.03              111676              154.85        -2.95772e+06         9.30038e+07
   11.05              111033             154.015        -2.94229e+06         9.25587e+07
   11.07              110393             153.186        -2.92693e+06         9.21153e+07
   11.09              109758             152.361        -2.91165e+06         9.16738e+07
   11.11              109126             151.543        -2.89644e+06         9.12341e+07
   11.13              108497             150.729        -2.88131e+06         9.07962e+07
   11.15              107873             149.921        -2.86624e+06         9.03603e+07
   11.17              107252             149.118        -2.85126e+06         8.99261e+07
   11.19              106635             148.321        -2.83635e+06         8.94939e+07
   11.21              106021             147.529        -2.82151e+06         8.90635e+07
   11.23              105412             146.742        -2.80674e+06         8.86349e+07
   11.25              104806             145.961        -2.79205e+06         8.82083e+07
   11.27              104204             145.185        -2.77744e+06         8.77835e+07
   11.29              103605             144.414         -2.7629e+06         8.73606e+07
   11.31              103010             143.648        -2.74844e+06         8.69397e+07
   11.33              102419             142.888        -2.73405e+06         8.65206e+07
   11.35              101832             142.134        -2.71973e+06         8.61034e+07
   11.37              101248             141.384        -2.70549e+06         8.56881e+07
   11.39              100668              140.64        -2.69133e+06         8.52748e+07
   11.41              100092             139.901        -2.67724e+06         8.48633e+07
   11.43             99519.6             139.168        -2.66323e+06         8.44538e+07
   11.45             98950.8              138.44        -2.64929e+06         8.40462e+07
   11.47             98385.7             137.717        -2.63542e+06         8.36406e+07
   11.49             97824.3                 137        -2.62164e+06         8.32368e+07
   11.51             97266.6             136.288        -2.60793e+06          8.2835e+07
   11.53             96712.6             135.581        -2.59429e+06         8.24352e+07
   11.55             96162.2             134.879        -2.58073e+06         8.20372e+07
   11.57             95615.6             134.183        -2.56725e+06         8.16413e+07
   11.59             95072.6             133.492        -2.55384e+06         8.12472e+07
   11.61             94533.3             132.807        -2.54051e+06         8.08552e+07
   11.63             93997.7             132.127        -2.52725e+06          8.0465e+07
   11.65             93465.8             131.452        -2.51407e+06         8.00769e+07
   11.67             92937.5             130.782        -2.50096e+06         7.96907e+07
   11.69             92412.8             130.118        -2.48793e+06         7.93064e+07
   11.71             91891.9             129.458        -2.47498e+06         7.89241e+07
   11.73             91374.5             128.805         -2.4621e+06         7.85438e+07
   11.75             90860.8             128.156         -2.4493e+06         7.81655e+07
   11.77             90350.7             127.513        -2.43658e+06         7.77891e+07
   11.79             89844.3             126.875        -2.42393e+06         7.74147e+07
   11.81             89341.5             126.242        -2.41135e+06         7.70422e+07
   11.83             88842.3             125.614        -2.39885e+06         7.66717e+07
   11.85             88346.7             124.992        -2.38643e+06         7.63032e+07
   11.87             87854.7             124.375        -2.37408e+06         7.59367e+07
   11.89             87366.3             123.763        -2.36181e+06         7.55722e+07
   11.91             86881.4             123.156        -2.34961e+06         7.52096e+07
   11.93             86400.2             122.555        -2.33749e+06          7.4849e+07
   11.95             85922.5             121.958        -2.32545e+06         7.44904e+07
   11.97             85448.4             121.367        -2.31348e+06         7.41337e+07
   11.99             84977.9             120.781        -2.30158e+06         7.37791e+07
   12.01             84510.9               120.2        -2.28976e+06         7.34264e+07
   12.03             84047.4             119.625        -2.27802e+06         7.30757e+07
   12.05             83587.5             119.054        -2.26635e+06          7.2727e+07
   12.07             83131.1             118.489        -2.25475e+06         7.23802e+07
   12.09             82678.2             117.929        -2.24324e+06         7.20354e+07
   12.11             82228.8             117.374        -2.23179e+06         7.16926e+07
   12.13             81782.9             116.824        -2.22042e+06         7.13518e+07
   12.15             81340.5             116.279        -2.20913e+06          7.1013e+07
   12.17             80901.6             115.739         -2.1979e+06         7.06761e+07
   12.19             80466.1             115.204        -2.18676e+06         7.03412e+07
   12.21             80034.1             114.675        -2.17569e+06         7.00083e+07
   12.23             79605.5              114.15        -2.16469e+06         6.96774e+07
   12.25             79180.4              113.63        -2.15376e+06         6.93484e+07
   12.27             78758.7             113.116        -2.14291e+06         6.90214e+07
   12.29             78340.4             112.606        -2.13214e+06         6.86963e+07
   12.31             77925.5             112.102        -2.12143e+06         6.83732e+07
   12.33               77514             111.602         -2.1108e+06         6.80521e+07
   12.35             77105.9             111.107        -2.10025e+06          6.7733e+07
   12.37             76701.2             110.618        -2.08976e+06         6.74158e+07
   12.39             76299.9             110.133        -2.07935e+06         6.71005e+07
   12.41             75901.8             109.653        -2.06902e+06         6.67873e+07
   12.43             75507.2             109.178        -2.05875e+06         6.64759e+07
   12.45             75115.8             108.708        -2.04856e+06         6.61665e+07
   12.47             74727.8             108.243        -2.03844e+06         6.58591e+07
   12.49             74343.1             107.783        -2.02839e+06         6.55536e+07
   12.51             73961.6             107.328        -2.01842e+06         6.52501e+07
   12.53             73583.5             106.877        -2.00851e+06         6.49484e+07
   12.55             73208.6             106.431        -1.99868e+06         6.46488e+07
   12.57             72836.9              105.99        -1.98892e+06          6.4351e+07
   12.59             72468.5             105.554        -1.97923e+06         6.40552e+07
   12.61             72103.4             105.123        -1.96961e+06         6.37613e+07
   12.63             71741.4             104.696        -1.96006e+06         6.34693e+07
   12.65             71382.7             104.274        -1.95058e+06         6.31793e+07
   12.67             71027.1             103.857        -1.94118e+06         6.28911e+07
   12.69             70674.7             103.444        -1.93184e+06         6.26049e+07
   12.71             70325.5             103.036        -1.92257e+06         6.23205e+07
   12.73             69979.5             102.633        -1.91337e+06         6.20381e+07
   12.75             69636.5             102.235        -1.90425e+06         6.17576e+07
   12.77             69296.7             101.841        -1.89519e+06         6.14789e+07
   12.79               68960             101.451         -1.8862e+06         6.12022e+07
   12.81             68626.4             101.066        -1.87728e+06         6.09273e+07
   12.83             68295.9             100.686        -1.86843e+06         6.06543e+07
   12.85             67968.5              100.31        -1.85964e+06         6.03832e+07
   12.87             67644.1             99.9392        -1.85093e+06         6.01139e+07
   12.89             67322.7             99.5724        -1.84228e+06         5.98466e+07
   12.91             67004.4             99.2101         -1.8337e+06          5.9581e+07
   12.93             66689.1             98.8522        -1.82519e+06         5.93174e+07
   12.95             66376.8             98.4988        -1.81674e+06         5.90555e+07
   12.97             66067.4             98.1498        -1.80836e+06         5.87955e+07
   12.99               65761             97.8051        -1.80005e+06         5.85374e+07
   13.01             65457.6             97.4648        -1.79181e+06         5.82811e+07
   13.03             65157.1             97.1288        -1.78363e+06         5.80266e+07
   13.05             64859.6             96.7971        -1.77551e+06         5.77739e+07
   13.07             64564.9             96.4697        -1.76746e+06         5.75231e+07
   13.09             64273.1             96.1466        -1.75948e+06         5.72741e+07
   13.11             63984.2             95.8277        -1.75156e+06         5.70268e+07
   13.13             63698.2             95.5129        -1.74371e+06         5.67814e+07
   13.15               63415             95.2024        -1.73592e+06         5.65377e+07
   13.17             63134.6              94.896        -1.72819e+06         5.62959e+07
   13.19             62857.1             94.5938        -1.72053e+06         5.60558e+07
   13.21             62582.3             94.2957        -1.71294e+06         5.58175e+07
   13.23             62310.4             94.0016         -1.7054e+06         5.55809e+07
   13.25             62041.2             93.7116        -1.69793e+06         5.53462e+07
   13.27             61774.7             93.4256        -1.69052e+06         5.51131e+07
   13.29               61511             93.1437        -1.68318e+06         5.48818e+07
   13.31               61250             92.8657        -1.67589e+06         5.46523e+07
   13.33             60991.7             92.5916        -1.66867e+06         5.44245e+07
   13.35             60736.1             92.3215        -1.66151e+06         5.41984e+07
   13.37             60483.1             92.0553        -1.65441e+06          5.3974e+07
   13.39             60232.8             91.7929        -1.64737e+06         5.37514e+07
   13.41             59985.2             91.5344        -1.64039e+06         5.35304e+07
   13.43             59740.1             91.2796        -1.63347e+06         5.33112e+07
   13.45             59497.7             91.0287        -1.62662e+06         5.30936e+07
   13.47             59257.9             90.7815        -1.61982e+06         5.28777e+07
   13.49             59020.6             90.5381        -1.61308e+06         5.26635e+07
   13.51             58785.9             90.2983         -1.6064e+06          5.2451e+07
   13.53             58553.7             90.0622        -1.59978e+06         5.22401e+07
   13.55               58324             89.8297        -1.59321e+06         5.20309e+07
   13.57             58096.9             89.6009        -1.58671e+06         5.18233e+07
   13.59             57872.2             89.3756        -1.58026e+06         5.16174e+07
   13.61               57650             89.1539        -1.57387e+06         5.14131e+07
   13.63             57430.3             88.9358        -1.56754e+06         5.12104e+07
   13.65               57213             88.7211        -1.56126e+06         5.10093e+07
   13.67             56998.1             88.5098        -1.55504e+06         5.08099e+07
   13.69             56785.6              88.302        -1.54888e+06          5.0612e+07
   13.71             56575.5             88.0977        -1.54277e+06         5.04157e+07
   13.73             56367.8             87.8966        -1.53671e+06          5.0221e+07
   13.75             56162.4              87.699        -1.53072e+06         5.00279e+07
   13.77             55959.4             87.5046        -1.52477e+06         4.98364e+07
   13.79             55758.6             87.3135        -1.51888e+06         4.96464e+07
   13.81             55560.2             87.1257        -1.51305e+06         4.94579e+07
   13.83             55364.1             86.9411        -1.50727e+06         4.92711e+07
   13.85             55170.2             86.7597        -1.50154e+06         4.90857e+07
   13.87             54978.6             86.5815        -1.49587e+06         4.89019e+07
   13.89             54789.2             86.4063        -1.49024e+06         4.87195e+07
   13.91               54602             86.2343        -1.48467e+06         4.85387e+07
   13.93             54417.1             86.0654        -1.47916e+06         4.83594e+07
   13.95             54234.3             85.8994        -1.47369e+06         4.81816e+07
   13.97             54053.6             85.7365        -1.46828e+06         4.80053e+07
   13.99             53875.1             85.5766        -1.46291e+06         4.78304e+07
   14.01             53698.8             85.4196         -1.4576e+06          4.7657e+07
   14.03             53524.6             85.2655        -1.45234e+06         4.74851e+07
   14.05             53352.4             85.1143        -1.44712e+06         4.73146e+07
   14.07             53182.3              84.966        -1.44196e+06         4.71456e+07
   14.09             53014.3             84.8205        -1.43684e+06         4.69779e+07
   14.11             52848.4             84.6777        -1.43178e+06         4.68118e+07
   14.13             52684.4             84.5378        -1.42676e+06          4.6647e+07
   14.15             52522.5             84.4005        -1.42179e+06         4.64836e+07
   14.17             52362.6             84.2659        -1.41687e+06         4.63216e+07
   14.19             52204.6             84.1341          -1.412e+06         4.61611e+07
   14.21             52048.6             84.0048        -1.40717e+06         4.60018e+07
   14.23             51894.5             83.8781        -1.40239e+06          4.5844e+07
   14.25             51742.4              83.754        -1.39766e+06         4.56875e+07
   14.27             51592.2             83.6325        -1.39297e+06         4.55324e+07
   14.29             51443.8             83.5134        -1.38833e+06         4.53786e+07
   14.31             51297.4             83.3969        -1.38373e+06         4.52262e+07
   14.33             51152.7             83.2828        -1.37918e+06         4.50751e+07
   14.35               51010             83.1711        -1.37467e+06         4.49253e+07
   14.37               50869             83.0617        -1.37021e+06         4.47768e+07
   14.39             50729.9             82.9548        -1.36579e+06         4.46296e+07
   14.41             50592.5             82.8501        -1.36142e+06         4.44837e+07
   14.43             50456.9             82.7478        -1.35709e+06         4.43391e+07
   14.45             50323.1             82.6477         -1.3528e+06         4.41957e+07
   14.47               50191             82.5498        -1.34855e+06         4.40537e+07
   14.49             50060.6             82.4542        -1.34435e+06         4.39128e+07
   14.51             49931.9             82.3607        -1.34019e+06         4.37732e+07
   14.53             49804.9             82.2694        -1.33607e+06         4.36349e+07
   14.55             49679.6             82.1801        -1.33199e+06         4.34978e+07
   14.57             49555.9              82.093        -1.32795e+06         4.33619e+07
   14.59             49433.9             82.0079        -1.32395e+06         4.32272e+07
   14.61             49313.5             81.9248        -1.31999e+06         4.30937e+07
   14.63             49194.7             81.8437        -1.31607e+06         4.29614e+07
   14.65             49077.4             81.7646         -1.3122e+06         4.28303e+07
   14.67             48961.8             81.6874        -1.30836e+06         4.27003e+07
   14.69             48847.7             81.6121        -1.30456e+06         4.25715e+07
   14.71             48735.1             81.5387        -1.30079e+06         4.24439e+07
   14.73             48624.1             81.4671        -1.29707e+06         4.23174e+07
   14.75             48514.6             81.3974        -1.29338e+06         4.21921e+07
   14.77             48406.5             81.3294        -1.28973e+06         4.20679e+07
   14.79               48300             81.2632        -1.28612e+06         4.19448e+07
   14.81             48194.9             81.1987        -1.28254e+06         4.18228e+07
   14.83             48091.2             81.1359        -1.27901e+06         4.17019e+07
   14.85             47988.9             81.0748         -1.2755e+06         4.15821e+07
   14.87             47888.1             81.0154        -1.27203e+06         4.14634e+07
   14.89             47788.7             80.9575         -1.2686e+06         4.13458e+07
   14.91             47690.6             80.9013        -1.26521e+06         4.12292e+07
   14.93             47593.9             80.8466        -1.26184e+06         4.11137e+07
   14.95             47498.5             80.7935        -1.25852e+06         4.09992e+07
   14.97             47404.5             80.7418        -1.25522e+06         4.08858e+07
   14.99             47311.8             80.6917        -1.25196e+06         4.07734e+07
   15.01             47220.4              80.643        -1.24873e+06         4.06621e+07
   15.03             47130.2             80.5957        -1.24554e+06         4.05517e+07
   15.05             47041.4             80.5498        -1.24238e+06         4.04424e+07
   15.07             46953.8             80.5053        -1.23925e+06          4.0334e+07
   15.09             46867.4             80.4621        -1.23615e+06         4.02266e+07
   15.11             46782.2             80.4203        -1.23309e+06         4.01203e+07
   15.13             46698.3             80.3798        -1.23006e+06         4.00148e+07
   15.15             46615.5             80.3405        -1.22705e+06         3.99104e+07
   15.17               46534             80.3025        -1.22408e+06         3.98069e+07
   15.19             46453.6             80.2657        -1.22114e+06         3.97043e+07
   15.21             46374.3             80.2301        -1.21823e+06         3.96027e+07
   15.23             46296.2             80.1957        -1.21535e+06          3.9502e+07
   15.25             46219.2             80.1624         -1.2125e+06         3.94022e+07
   15.27             46143.3             80.1302        -1.20968e+06         3.93034e+07
   15.29             46068.4             80.0991        -1.20688e+06         3.92054e+07
   15.31             45994.7             80.0691        -1.20412e+06         3.91083e+07
   15.33               45922             80.0402        -1.20138e+06         3.90121e+07
   15.35             45850.4             80.0123        -1.19867e+06         3.89168e+07
   15.37             45779.8             79.9853        -1.19599e+06         3.88224e+07
   15.39             45710.2             79.9594        -1.19334e+06         3.87288e+07
   15.41             45641.6             79.9344        -1.19071e+06         3.86361e+07
   15.43               45574             79.9103        -1.18811e+06         3.85442e+07
   15.45             45507.4             79.8872        -1.18554e+06         3.84532e+07
   15.47             45441.7             79.8649        -1.18299e+06         3.83629e+07
   15.49               45377             79.8435        -1.18047e+06         3.82735e+07
   15.51             45313.3              79.823        -1.17798e+06         3.81849e+07
   15.53             45250.4             79.8032        -1.17551e+06         3.80972e+07
   15.55             45188.5             79.7843        -1.17306e+06         3.80102e+07
   15.57             45127.4             79.7661        -1.17064e+06          3.7924e+07
   15.59             45067.2             79.7487        -1.16825e+06         3.78386e+07
   15.61             45007.9              79.732        -1.16588e+06         3.77539e+07
   15.63             44949.5             79.7161        -1.16353e+06           3.767e+07
   15.65             44891.9             79.7008        -1.16121e+06         3.75869e+07
   15.67             44835.1             79.6862        -1.15891e+06         3.75045e+07
   15.69             44779.2             79.6722        -1.15663e+06         3.74229e+07
   15.71               44724             79.6589        -1.15438e+06          3.7342e+07
   15.73             44669.6             79.6462        -1.15214e+06         3.72618e+07
   15.75               44616             79.6341        -1.14993e+06         3.71824e+07
   15.77             44563.2             79.6225        -1.14775e+06         3.71036e+07
   15.79             44511.1             79.6115        -1.14558e+06         3.70256e+07
   15.81             44459.8             79.6011        -1.14344e+06         3.69482e+07
   15.83             44409.2             79.5911        -1.14131e+06         3.68716e+07
   15.85             44359.3             79.5817        -1.13921e+06         3.67956e+07
   15.87             44310.1             79.5727        -1.13713e+06         3.67203e+07
   15.89             44261.6             79.5641        -1.13507e+06         3.66457e+07
   15.91             44213.8              79.556        -1.13303e+06         3.65717e+07
   15.93             44166.7             79.5484        -1.13101e+06         3.64984e+07
   15.95             44120.2             79.5411        -1.12901e+06         3.64257e+07
   15.97             44074.4             79.5342        -1.12703e+06         3.63537e+07
   15.99             44029.2             79.5277        -1.12506e+06         3.62823e+07
   16.01             43984.6             79.5215        -1.12312e+06         3.62115e+07
   16.03             43940.6             79.5157         -1.1212e+06         3.61414e+07
   16.05             43897.2             79.5101        -1.11929e+06         3.60718e+07
   16.07             43854.4             79.5049         -1.1174e+06         3.60029e+07
   16.09             43812.2                79.5        -1.11553e+06         3.59345e+07
   16.11             43770.6             79.4953        -1.11368e+06         3.58668e+07
   16.13             43729.5             79.4908        -1.11185e+06         3.57996e+07
   16.15             43688.9             79.4866        -1.11003e+06          3.5733e+07
   16.17             43648.9             79.4826        -1.10823e+06          3.5667e+07
   16.19             43609.4             79.4789        -1.10644e+06         3.56016e+07
   16.21             43570.5             79.4753        -1.10468e+06         3.55367e+07
   16.23               43532             79.4718        -1.10293e+06         3.54724e+07
   16.25               43494             79.4685        -1.10119e+06         3.54086e+07
   16.27             43456.5             79.4654        -1.09948e+06         3.53453e+07
   16.29             43419.5             79.4624        -1.09777e+06         3.52826e+07
   16.31             43382.9             79.4594        -1.09609e+06         3.52204e+07
   16.33             43346.8             79.4566        -1.09441e+06         3.51588e+07
   16.35             43311.2             79.4539        -1.09276e+06         3.50976e+07
   16.37             43275.9             79.4512        -1.09112e+06          3.5037e+07
   16.39             43241.1             79.4486        -1.08949e+06         3.49768e+07
   16.41             43206.7              79.446        -1.08788e+06         3.49172e+07
   16.43             43172.8             79.4434        -1.08628e+06         3.48581e+07
   16.45             43139.2             79.4408         -1.0847e+06         3.47994e+07
   16.47               43106             79.4383        -1.08313e+06         3.47412e+07
   16.49             43073.1             79.4357        -1.08157e+06         3.46835e+07
   16.51             43040.7             79.4331        -1.08003e+06         3.46263e+07
   16.53             43008.6             79.4304         -1.0785e+06         3.45695e+07
   16.55             42976.8             79.4277        -1.07698e+06         3.45132e+07
   16.57             42945.4             79.4249        -1.07548e+06         3.44574e+07
   16.59             42914.3             79.4221        -1.07399e+06         3.44019e+07
   16.61             42883.6             79.4191        -1.07251e+06          3.4347e+07
   16.63             42853.1              79.416        -1.07105e+06         3.42924e+07
   16.65               42823             79.4128        -1.06959e+06         3.42384e+07
   16.67             42793.2             79.4095        -1.06815e+06         3.41847e+07
   16.69             42763.6             79.4061        -1.06672e+06         3.41314e+07
   16.71             42734.4             79.4024        -1.06531e+06         3.40786e+07
   16.73             42705.4             79.3987         -1.0639e+06         3.40262e+07
   16.75             42676.7             79.3947        -1.06251e+06         3.39742e+07
   16.77             42648.2             79.3906        -1.06112e+06         3.39226e+07
   16.79               42620             79.3862        -1.05975e+06         3.38713e+07
   16.81               42592             79.3816        -1.05839e+06         3.38205e+07
   16.83             42564.3             79.3769        -1.05704e+06         3.37701e+07
   16.85             42536.8             79.3719         -1.0557e+06           3.372e+07
   16.87             42509.6             79.3666        -1.05437e+06         3.36704e+07
   16.89             42482.5             79.3611        -1.05305e+06         3.36211e+07
   16.91             42455.6             79.3553        -1.05174e+06         3.35721e+07
   16.93               42429             79.3493        -1.05045e+06         3.35236e+07
   16.95             42402.5              79.343        -1.04916e+06         3.34754e+07
   16.97             42376.3             79.3364        -1.04788e+06         3.34275e+07
   16.99             42350.2             79.3294        -1.04661e+06           3.338e+07
   17.01             42324.3             79.3222        -1.04535e+06         3.33329e+07
   17.03             42298.5             79.3147        -1.04409e+06         3.32861e+07
   17.05             42272.9             79.3068        -1.04285e+06         3.32396e+07
   17.07             42247.5             79.2986        -1.04162e+06         3.31935e+07
   17.09             42222.2               79.29         -1.0404e+06         3.31477e+07
   17.11             42197.1             79.2811        -1.03918e+06         3.31022e+07
   17.13             42172.1             79.2718        -1.03797e+06          3.3057e+07
   17.15             42147.2             79.2621        -1.03677e+06         3.30122e+07
   17.17             42122.5             79.2521        -1.03558e+06         3.29677e+07
   17.19             42097.8             79.2417         -1.0344e+06         3.29235e+07
   17.21             42073.3             79.2308        -1.03323e+06         3.28796e+07
   17.23             42048.9             79.2196        -1.03206e+06          3.2836e+07
   17.25             42024.6             79.2079         -1.0309e+06         3.27927e+07
   17.27             42000.3             79.1959        -1.02975e+06         3.27497e+07
   17.29             41976.2             79.1833        -1.02861e+06          3.2707e+07
   17.31             41952.2             79.1704        -1.02748e+06         3.26646e+07
   17.33             41928.2              79.157        -1.02635e+06         3.26224e+07
   17.35             41904.3             79.1432        -1.02523e+06         3.25806e+07
   17.37             41880.5             79.1289        -1.02411e+06          3.2539e+07
   17.39             41856.7             79.1141        -1.02301e+06         3.24977e+07
   17.41               41833             79.0989        -1.02191e+06         3.24567e+07
   17.43             41809.4             79.0831        -1.02082e+06          3.2416e+07
   17.45             41785.8             79.0669        -1.01973e+06         3.23755e+07
   17.47             41762.2             79.0502        -1.01865e+06         3.23353e+07
   17.49             41738.7              79.033        -1.01758e+06         3.22953e+07
   17.51             41715.2             79.0153        -1.01651e+06         3.22556e+07
   17.53             41691.8             78.9971        -1.01545e+06         3.22162e+07
   17.55             41668.4             78.9784         -1.0144e+06          3.2177e+07
   17.57               41645             78.9591        -1.01335e+06          3.2138e+07
   17.59             41621.6             78.9393        -1.01231e+06         3.20993e+07
   17.61             41598.2              78.919        -1.01128e+06         3.20609e+07
   17.63             41574.9             78.8981        -1.01025e+06         3.20227e+07
   17.65             41551.5             78.8767        -1.00922e+06         3.19847e+07
   17.67             41528.2             78.8548        -1.00821e+06          3.1947e+07
   17.69             41504.9             78.8322        -1.00719e+06         3.19094e+07
   17.71             41481.5             78.8092        -1.00619e+06         3.18722e+07
   17.73             41458.1             78.7855        -1.00519e+06         3.18351e+07
   17.75             41434.8             78.7613        -1.00419e+06         3.17983e+07
   17.77             41411.4             78.7365         -1.0032e+06         3.17617e+07
   17.79               41388             78.7111        -1.00222e+06         3.17253e+07
   17.81             41364.6             78.6852        -1.00124e+06         3.16891e+07
   17.83             41341.1             78.6586        -1.00026e+06         3.16532e+07
   17.85             41317.6             78.6315             -999292         3.16174e+07
   17.87             41294.1             78.6037             -998327         3.15819e+07
   17.89             41270.6             78.5754             -997367         3.15466e+07
   17.91               41247             78.5464             -996413         3.15115e+07
   17.93             41223.3             78.5169             -995463         3.14766e+07
   17.95             41199.7             78.4867             -994517         3.14419e+07
   17.97               41176             78.4559             -993577         3.14073e+07
   17.99             41152.2             78.4245             -992641          3.1373e+07
   18.01             41128.4             78.3925             -991709         3.13389e+07
   18.03             41104.5             78.3598             -990782          3.1305e+07
   18.05             41080.6             78.3265             -989859         3.12713e+07
   18.07             41056.6             78.2926             -988941         3.12378e+07
   18.09             41032.5              78.258             -988027         3.12044e+07
   18.11             41008.4             78.2228             -987117         3.11712e+07
   18.13             40984.2             78.1869             -986212         3.11383e+07
   18.15               40960             78.1504             -985310         3.11055e+07
   18.17             40935.6             78.1133             -984413         3.10729e+07
   18.19             40911.2             78.0755             -983520         3.10404e+07
   18.21             40886.8              78.037             -982631         3.10082e+07
   18.23             40862.2             77.9979             -981745         3.09761e+07
   18.25             40837.6             77.9582             -980864         3.09442e+07
   18.27             40812.9             77.9177             -979987         3.09125e+07
   18.29             40788.1             77.8767             -979113         3.08809e+07
   18.31             40763.2             77.8349             -978243         3.08496e+07
   18.33             40738.2             77.7925             -977377         3.08184e+07
   18.35             40713.2             77.7494             -976514         3.07873e+07
   18.37               40688             77.7057             -975656         3.07564e+07
   18.39             40662.8             77.6612             -974800         3.07257e+07
   18.41             40637.5             77.6162             -973949         3.06952e+07
   18.43             40612.1             77.5704             -973101         3.06648e+07
   18.45             40586.5             77.5239             -972256         3.06346e+07
   18.47             40560.9             77.4768             -971415         3.06045e+07
   18.49             40535.2              77.429             -970577         3.05746e+07
   18.51             40509.4             77.3806             -969743         3.05448e+07
   18.53             40483.5             77.3314             -968912         3.05153e+07
   18.55             40457.5             77.2816             -968084         3.04858e+07
   18.57             40431.4             77.2311             -967260         3.04565e+07
   18.59             40405.2             77.1799             -966439         3.04274e+07
   18.61             40378.9              77.128             -965621         3.03984e+07
   18.63             40352.4             77.0755             -964807         3.03696e+07
   18.65             40325.9             77.0222             -963995         3.03409e+07
   18.67             40299.3             76.9683             -963187         3.03124e+07
   18.69             40272.5             76.9137             -962382          3.0284e+07
   18.71             40245.7             76.8584             -961580         3.02558e+07
   18.73             40218.7             76.8024             -960781         3.02277e+07
   18.75             40191.6             76.7458             -959985         3.01998e+07
   18.77             40164.5             76.6884             -959193          3.0172e+07
   18.79             40137.2             76.6304             -958403         3.01443e+07
   18.81             40109.8             76.5717             -957616         3.01168e+07
   18.83             40082.2             76.5123             -956832         3.00894e+07
   18.85             40054.6             76.4523             -956051         3.00622e+07
   18.87             40026.9             76.3915             -955273         3.00351e+07
   18.89               39999             76.3301             -954498         3.00082e+07
   18.91               39971              76.268             -953726         2.99814e+07
   18.93             39942.9             76.2052             -952957         2.99547e+07
   18.95             39914.7             76.1417             -952190         2.99282e+07
   18.97             39886.4             76.0776             -951427         2.99018e+07
   18.99               39858             76.0128             -950666         2.98755e+07
   19.01             39829.5             75.9473             -949908         2.98494e+07
   19.03             39800.8             75.8811             -949152         2.98234e+07
   19.05               39772             75.8142             -948400         2.97975e+07
   19.07             39743.1             75.7467             -947650         2.97718e+07
   19.09             39714.1             75.6785             -946903         2.97462e+07
   19.11               39685             75.6097             -946159         2.97207e+07
   19.13             39655.8             75.5401             -945417         2.96954e+07
   19.15             39626.4             75.4699             -944678         2.96702e+07
   19.17             39596.9             75.3991             -943942         2.96451e+07
   19.19             39567.4             75.3275             -943208         2.96202e+07
   19.21             39537.6             75.2553             -942477         2.95954e+07
   19.23             39507.8             75.1825             -941749         2.95707e+07
   19.25             39477.9              75.109             -941023         2.95461e+07
   19.27             39447.9             75.0348             -940300         2.95217e+07
   19.29             39417.7               74.96             -939579         2.94974e+07
   19.31             39387.4             74.8845             -938861         2.94732e+07
   19.33               39357             74.8084             -938145         2.94492e+07
   19.35             39326.5             74.7316             -937433         2.94252e+07
   19.37             39295.9             74.6542             -936722         2.94014e+07
   19.39             39265.2             74.5761             -936014         2.93778e+07
   19.41             39234.3             74.4974             -935309         2.93542e+07
   19.43             39203.4              74.418             -934606         2.93308e+07
   19.45             39172.3              74.338             -933906         2.93075e+07
   19.47             39141.1             74.2574             -933208         2.92843e+07
   19.49             39109.8             74.1761             -932512         2.92612e+07
   19.51             39078.4             74.0942             -931820         2.92382e+07
   19.53             39046.9             74.0117             -931129         2.92154e+07
   19.55             39015.3             73.9286             -930441         2.91927e+07
   19.57             38983.5             73.8448             -929755         2.91701e+07
   19.59             38951.7             73.7604             -929072         2.91477e+07
   19.61             38919.7             73.6754             -928391         2.91253e+07
   19.63             38887.7             73.5898             -927713         2.91031e+07
   19.65             38855.5             73.5035             -927037          2.9081e+07
   19.67             38823.2             73.4167             -926363          2.9059e+07
   19.69             38790.8             73.3292             -925692         2.90371e+07
   19.71             38758.3             73.2411             -925023         2.90153e+07
   19.73             38725.7             73.1525             -924356         2.89937e+07
   19.75               38693             73.0632             -923692         2.89721e+07
   19.77             38660.2             72.9734             -923030         2.89507e+07
   19.79             38627.3             72.8829             -922370         2.89294e+07
   19.81             38594.3             72.7919             -921713         2.89082e+07
   19.83             38561.2             72.7003             -921058         2.88871e+07
   19.85               38528             72.6081             -920405         2.88662e+07
   19.87             38494.6             72.5153             -919755         2.88453e+07
   19.89             38461.2              72.422             -919106         2.88246e+07
   19.91             38427.7             72.3281             -918460         2.88039e+07
   19.93             38394.1             72.2336             -917817         2.87834e+07
   19.95             38360.3             72.1385             -917175          2.8763e+07
   19.97             38326.5             72.0429             -916536         2.87427e+07
   19.99             38292.6             71.9467             -915898         2.87225e+07
