## w(eV)         sigma(Sm^-1)     kappa(W(mK)^-1)        L12/e(Am^-1)      L22/e^2(Wm^-1)
    0.01              371888             525.769         -9.3783e+06          2.8631e+08
    0.03              371890             525.767        -9.37835e+06         2.86311e+08
    0.05              371895             525.764        -9.37844e+06         2.86313e+08
    0.07              371901             525.759        -9.37858e+06         2.86315e+08
    0.09              371909             525.753        -9.37877e+06         2.86319e+08
    0.11              371920             525.745          -9.379e+06         2.86323e+08
    0.13              371932             525.735        -9.37929e+06         2.86328e+08
    0.15              371947             525.724        -9.37961e+06         2.86335e+08
    0.17              371964             525.711        -9.37999e+06         2.86342e+08
    0.19              371982             525.696        -9.38041e+06          2.8635e+08
    0.21              372003              525.68        -9.38088e+06         2.86359e+08
    0.23              372026             525.663        -9.38139e+06         2.86368e+08
    0.25              372051             525.643        -9.38195e+06         2.86379e+08
    0.27              372078             525.622        -9.38256e+06          2.8639e+08
    0.29              372107               525.6        -9.38321e+06         2.86403e+08
    0.31              372138             525.575        -9.38391e+06         2.86416e+08
    0.33              372171              525.55        -9.38465e+06          2.8643e+08
    0.35              372206             525.522        -9.38544e+06         2.86445e+08
    0.37              372243             525.493        -9.38628e+06          2.8646e+08
    0.39              372283             525.462        -9.38716e+06         2.86477e+08
    0.41              372324              525.43        -9.38808e+06         2.86494e+08
    0.43              372367             525.396        -9.38905e+06         2.86512e+08
    0.45              372412              525.36        -9.39007e+06         2.86531e+08
    0.47              372459             525.323        -9.39113e+06         2.86551e+08
    0.49              372509             525.284        -9.39223e+06         2.86572e+08
    0.51              372560             525.243        -9.39337e+06         2.86594e+08
    0.53              372613             525.201        -9.39457e+06         2.86616e+08
    0.55              372668             525.157         -9.3958e+06         2.86639e+08
    0.57              372724             525.111        -9.39707e+06         2.86663e+08
    0.59              372783             525.064        -9.39839e+06         2.86687e+08
    0.61              372844             525.015        -9.39976e+06         2.86713e+08
    0.63              372907             524.964        -9.40116e+06         2.86739e+08
    0.65              372971             524.912         -9.4026e+06         2.86766e+08
    0.67              373037             524.858        -9.40409e+06         2.86794e+08
    0.69              373105             524.802        -9.40562e+06         2.86822e+08
    0.71              373175             524.745        -9.40719e+06         2.86851e+08
    0.73              373247             524.686         -9.4088e+06         2.86881e+08
    0.75              373321             524.625        -9.41044e+06         2.86912e+08
    0.77              373396             524.562        -9.41213e+06         2.86943e+08
    0.79              373473             524.498        -9.41386e+06         2.86975e+08
    0.81              373552             524.432        -9.41563e+06         2.87008e+08
    0.83              373633             524.364        -9.41743e+06         2.87041e+08
    0.85              373715             524.295        -9.41928e+06         2.87075e+08
    0.87              373799             524.223        -9.42116e+06          2.8711e+08
    0.89              373885              524.15        -9.42307e+06         2.87145e+08
    0.91              373972             524.076        -9.42503e+06         2.87181e+08
    0.93              374061             523.999        -9.42702e+06         2.87218e+08
    0.95              374152             523.921        -9.42905e+06         2.87255e+08
    0.97              374244             523.841        -9.43111e+06         2.87293e+08
    0.99              374338             523.759         -9.4332e+06         2.87331e+08
    1.01              374433             523.675        -9.43533e+06          2.8737e+08
    1.03              374530              523.59         -9.4375e+06         2.87409e+08
    1.05              374629             523.502         -9.4397e+06         2.87449e+08
    1.07              374728             523.413        -9.44193e+06          2.8749e+08
    1.09              374830             523.322        -9.44419e+06         2.87531e+08
    1.11              374933             523.229        -9.44648e+06         2.87572e+08
    1.13              375037             523.135        -9.44881e+06         2.87614e+08
    1.15              375143             523.038        -9.45117e+06         2.87657e+08
    1.17              375250              522.94        -9.45355e+06           2.877e+08
    1.19              375358              522.84        -9.45597e+06         2.87743e+08
    1.21              375468             522.737        -9.45841e+06         2.87787e+08
    1.23              375579             522.633        -9.46088e+06         2.87832e+08
    1.25              375691             522.528        -9.46339e+06         2.87876e+08
    1.27              375804              522.42        -9.46591e+06         2.87921e+08
    1.29              375919              522.31        -9.46847e+06         2.87967e+08
    1.31              376035             522.198        -9.47104e+06         2.88013e+08
    1.33              376152             522.085        -9.47365e+06         2.88059e+08
    1.35              376270             521.969        -9.47628e+06         2.88105e+08
    1.37              376390             521.852        -9.47893e+06         2.88152e+08
    1.39              376510             521.732        -9.48161e+06         2.88199e+08
    1.41              376632             521.611         -9.4843e+06         2.88246e+08
    1.43              376754             521.487        -9.48702e+06         2.88294e+08
    1.45              376878             521.362        -9.48977e+06         2.88342e+08
    1.47              377002             521.234        -9.49253e+06          2.8839e+08
    1.49              377128             521.105        -9.49531e+06         2.88438e+08
    1.51              377254             520.974        -9.49811e+06         2.88486e+08
    1.53              377382              520.84        -9.50093e+06         2.88535e+08
    1.55              377510             520.704        -9.50376e+06         2.88584e+08
    1.57              377639             520.567        -9.50661e+06         2.88633e+08
    1.59              377768             520.427        -9.50948e+06         2.88682e+08
    1.61              377899             520.285        -9.51237e+06         2.88731e+08
    1.63              378030             520.141        -9.51526e+06          2.8878e+08
    1.65              378162             519.995        -9.51818e+06         2.88829e+08
    1.67              378294             519.847         -9.5211e+06         2.88878e+08
    1.69              378427             519.697        -9.52404e+06         2.88928e+08
    1.71              378561             519.544        -9.52699e+06         2.88977e+08
    1.73              378696              519.39        -9.52995e+06         2.89026e+08
    1.75              378830             519.233        -9.53292e+06         2.89075e+08
    1.77              378966             519.074        -9.53589e+06         2.89124e+08
    1.79              379101             518.913        -9.53888e+06         2.89173e+08
    1.81              379238              518.75        -9.54187e+06         2.89222e+08
    1.83              379374             518.584        -9.54487e+06         2.89271e+08
    1.85              379511             518.416        -9.54788e+06          2.8932e+08
    1.87              379648             518.246        -9.55089e+06         2.89368e+08
    1.89              379786             518.074         -9.5539e+06         2.89417e+08
    1.91              379924             517.899        -9.55692e+06         2.89465e+08
    1.93              380062             517.723        -9.55994e+06         2.89513e+08
    1.95              380200             517.543        -9.56296e+06          2.8956e+08
    1.97              380338             517.362        -9.56598e+06         2.89608e+08
    1.99              380476             517.178          -9.569e+06         2.89655e+08
    2.01              380615             516.992        -9.57202e+06         2.89701e+08
    2.03              380753             516.803        -9.57504e+06         2.89748e+08
    2.05              380892             516.613        -9.57806e+06         2.89794e+08
    2.07              381030             516.419        -9.58107e+06         2.89839e+08
    2.09              381168             516.224        -9.58407e+06         2.89885e+08
    2.11              381306             516.026        -9.58707e+06         2.89929e+08
    2.13              381444             515.825        -9.59007e+06         2.89974e+08
    2.15              381582             515.622        -9.59305e+06         2.90017e+08
    2.17              381720             515.417        -9.59603e+06         2.90061e+08
    2.19              381857             515.209          -9.599e+06         2.90104e+08
    2.21              381994             514.999        -9.60195e+06         2.90146e+08
    2.23              382130             514.786         -9.6049e+06         2.90188e+08
    2.25              382266             514.571        -9.60783e+06         2.90229e+08
    2.27              382402             514.353        -9.61075e+06         2.90269e+08
    2.29              382537             514.132        -9.61366e+06         2.90309e+08
    2.31              382671             513.909        -9.61655e+06         2.90348e+08
    2.33              382805             513.684        -9.61942e+06         2.90387e+08
    2.35              382939             513.456        -9.62228e+06         2.90424e+08
    2.37              383072             513.225        -9.62512e+06         2.90461e+08
    2.39              383204             512.992        -9.62794e+06         2.90498e+08
    2.41              383335             512.756        -9.63074e+06         2.90533e+08
    2.43              383465             512.517        -9.63352e+06         2.90568e+08
    2.45              383595             512.276        -9.63628e+06         2.90602e+08
    2.47              383724             512.032        -9.63901e+06         2.90635e+08
    2.49              383852             511.785        -9.64172e+06         2.90667e+08
    2.51              383979             511.536         -9.6444e+06         2.90698e+08
    2.53              384105             511.284        -9.64706e+06         2.90728e+08
    2.55              384229             511.029        -9.64969e+06         2.90757e+08
    2.57              384353             510.771         -9.6523e+06         2.90786e+08
    2.59              384476             510.511        -9.65487e+06         2.90813e+08
    2.61              384597             510.248        -9.65742e+06         2.90839e+08
    2.63              384718             509.982        -9.65993e+06         2.90864e+08
    2.65              384837             509.713        -9.66241e+06         2.90888e+08
    2.67              384954             509.442        -9.66486e+06         2.90911e+08
    2.69              385071             509.167        -9.66727e+06         2.90933e+08
    2.71              385186              508.89        -9.66965e+06         2.90954e+08
    2.73              385299              508.61        -9.67199e+06         2.90973e+08
    2.75              385411             508.327        -9.67429e+06         2.90992e+08
    2.77              385522             508.041        -9.67656e+06         2.91009e+08
    2.79              385631             507.752        -9.67879e+06         2.91024e+08
    2.81              385738              507.46        -9.68097e+06         2.91039e+08
    2.83              385844             507.165        -9.68312e+06         2.91052e+08
    2.85              385948             506.867        -9.68522e+06         2.91064e+08
    2.87              386050             506.566        -9.68728e+06         2.91074e+08
    2.89              386151             506.262        -9.68929e+06         2.91083e+08
    2.91              386250             505.955        -9.69126e+06         2.91091e+08
    2.93              386346             505.645        -9.69319e+06         2.91097e+08
    2.95              386441             505.332        -9.69506e+06         2.91102e+08
    2.97              386534             505.016        -9.69689e+06         2.91105e+08
    2.99              386625             504.697        -9.69866e+06         2.91106e+08
    3.01              386714             504.375        -9.70039e+06         2.91107e+08
    3.03              386801             504.049        -9.70206e+06         2.91105e+08
    3.05              386885             503.721        -9.70368e+06         2.91102e+08
    3.07              386968             503.389        -9.70525e+06         2.91097e+08
    3.09              387048             503.054        -9.70676e+06         2.91091e+08
    3.11              387126             502.716        -9.70822e+06         2.91083e+08
    3.13              387202             502.375        -9.70961e+06         2.91073e+08
    3.15              387275              502.03        -9.71096e+06         2.91062e+08
    3.17              387346             501.683        -9.71224e+06         2.91049e+08
    3.19              387414             501.332        -9.71346e+06         2.91034e+08
    3.21              387480             500.977        -9.71462e+06         2.91017e+08
    3.23              387543              500.62        -9.71572e+06         2.90998e+08
    3.25              387604             500.259        -9.71675e+06         2.90978e+08
    3.27              387662             499.895        -9.71772e+06         2.90955e+08
    3.29              387717             499.527        -9.71862e+06         2.90931e+08
    3.31              387770             499.156        -9.71946e+06         2.90905e+08
    3.33              387820             498.782        -9.72023e+06         2.90877e+08
    3.35              387867             498.404        -9.72094e+06         2.90846e+08
    3.37              387912             498.023        -9.72157e+06         2.90814e+08
    3.39              387953             497.639        -9.72213e+06          2.9078e+08
    3.41              387991             497.251        -9.72262e+06         2.90744e+08
    3.43              388027              496.86        -9.72304e+06         2.90705e+08
    3.45              388059             496.465        -9.72339e+06         2.90665e+08
    3.47              388089             496.066        -9.72366e+06         2.90622e+08
    3.49              388115             495.665        -9.72385e+06         2.90578e+08
    3.51              388138             495.259        -9.72397e+06         2.90531e+08
    3.53              388158             494.851        -9.72401e+06         2.90481e+08
    3.55              388175             494.438        -9.72398e+06          2.9043e+08
    3.57              388188             494.022        -9.72386e+06         2.90376e+08
    3.59              388198             493.603        -9.72366e+06          2.9032e+08
    3.61              388205              493.18        -9.72338e+06         2.90262e+08
    3.63              388208             492.753        -9.72302e+06         2.90202e+08
    3.65              388208             492.323        -9.72258e+06         2.90139e+08
    3.67              388204             491.889        -9.72205e+06         2.90073e+08
    3.69              388197             491.451        -9.72143e+06         2.90006e+08
    3.71              388186              491.01        -9.72073e+06         2.89936e+08
    3.73              388172             490.565        -9.71995e+06         2.89863e+08
    3.75              388154             490.116        -9.71907e+06         2.89788e+08
    3.77              388132             489.664         -9.7181e+06          2.8971e+08
    3.79              388107             489.208        -9.71705e+06          2.8963e+08
    3.81              388077             488.748         -9.7159e+06         2.89548e+08
    3.83              388044             488.285        -9.71466e+06         2.89462e+08
    3.85              388007             487.818        -9.71333e+06         2.89375e+08
    3.87              387966             487.347        -9.71191e+06         2.89284e+08
    3.89              387922             486.872        -9.71039e+06         2.89191e+08
    3.91              387873             486.393        -9.70877e+06         2.89095e+08
    3.93              387820             485.911        -9.70706e+06         2.88997e+08
    3.95              387763             485.424        -9.70525e+06         2.88896e+08
    3.97              387702             484.934        -9.70334e+06         2.88792e+08
    3.99              387637              484.44        -9.70133e+06         2.88686e+08
    4.01              387568             483.943        -9.69922e+06         2.88576e+08
    4.03              387495             483.441        -9.69701e+06         2.88464e+08
    4.05              387417             482.935         -9.6947e+06         2.88349e+08
    4.07              387335             482.426        -9.69229e+06         2.88232e+08
    4.09              387249             481.912        -9.68977e+06         2.88111e+08
    4.11              387158             481.395        -9.68715e+06         2.87988e+08
    4.13              387063             480.874        -9.68442e+06         2.87861e+08
    4.15              386964             480.348        -9.68159e+06         2.87732e+08
    4.17              386860             479.819        -9.67865e+06           2.876e+08
    4.19              386751             479.286         -9.6756e+06         2.87465e+08
    4.21              386638             478.749        -9.67245e+06         2.87327e+08
    4.23              386521             478.208        -9.66918e+06         2.87185e+08
    4.25              386399             477.663        -9.66581e+06         2.87041e+08
    4.27              386272             477.113        -9.66232e+06         2.86894e+08
    4.29              386141              476.56        -9.65872e+06         2.86744e+08
    4.31              386005             476.003        -9.65501e+06         2.86591e+08
    4.33              385864             475.442        -9.65119e+06         2.86434e+08
    4.35              385718             474.876        -9.64725e+06         2.86275e+08
    4.37              385568             474.307         -9.6432e+06         2.86112e+08
    4.39              385413             473.733        -9.63903e+06         2.85947e+08
    4.41              385253             473.156        -9.63475e+06         2.85778e+08
    4.43              385088             472.574        -9.63035e+06         2.85606e+08
    4.45              384918             471.988        -9.62583e+06          2.8543e+08
    4.47              384743             471.398        -9.62119e+06         2.85252e+08
    4.49              384564             470.804        -9.61644e+06          2.8507e+08
    4.51              384379             470.206        -9.61156e+06         2.84885e+08
    4.53              384189             469.604        -9.60657e+06         2.84697e+08
    4.55              383994             468.997        -9.60145e+06         2.84506e+08
    4.57              383794             468.387        -9.59622e+06         2.84311e+08
    4.59              383589             467.772        -9.59086e+06         2.84113e+08
    4.61              383379             467.153        -9.58537e+06         2.83911e+08
    4.63              383164              466.53        -9.57977e+06         2.83707e+08
    4.65              382943             465.903        -9.57404e+06         2.83499e+08
    4.67              382717             465.271        -9.56818e+06         2.83287e+08
    4.69              382486             464.635        -9.56221e+06         2.83072e+08
    4.71              382250             463.996         -9.5561e+06         2.82854e+08
    4.73              382008             463.351        -9.54987e+06         2.82633e+08
    4.75              381762             462.703        -9.54351e+06         2.82408e+08
    4.77              381509             462.051        -9.53703e+06         2.82179e+08
    4.79              381252             461.394        -9.53041e+06         2.81947e+08
    4.81              380989             460.733        -9.52367e+06         2.81712e+08
    4.83              380720             460.068         -9.5168e+06         2.81473e+08
    4.85              380447             459.398         -9.5098e+06         2.81231e+08
    4.87              380167             458.724        -9.50267e+06         2.80985e+08
    4.89              379883             458.046        -9.49541e+06         2.80736e+08
    4.91              379592             457.364        -9.48802e+06         2.80483e+08
    4.93              379297             456.678        -9.48049e+06         2.80226e+08
    4.95              378996             455.987        -9.47284e+06         2.79967e+08
    4.97              378689             455.292        -9.46505e+06         2.79703e+08
    4.99              378377             454.593        -9.45714e+06         2.79436e+08
    5.01              378059             453.889        -9.44908e+06         2.79166e+08
    5.03              377735             453.181         -9.4409e+06         2.78891e+08
    5.05              377406             452.469        -9.43258e+06         2.78614e+08
    5.07              377071             451.753        -9.42413e+06         2.78332e+08
    5.09              376731             451.032        -9.41554e+06         2.78048e+08
    5.11              376385             450.308        -9.40682e+06         2.77759e+08
    5.13              376033             449.578        -9.39796e+06         2.77467e+08
    5.15              375676             448.845        -9.38897e+06         2.77171e+08
    5.17              375313             448.107        -9.37984e+06         2.76872e+08
    5.19              374944             447.365        -9.37058e+06         2.76569e+08
    5.21              374570             446.619        -9.36118e+06         2.76262e+08
    5.23              374190             445.869        -9.35164e+06         2.75952e+08
    5.25              373804             445.114        -9.34197e+06         2.75638e+08
    5.27              373412             444.355        -9.33215e+06          2.7532e+08
    5.29              373015             443.592        -9.32221e+06         2.74999e+08
    5.31              372612             442.824        -9.31212e+06         2.74674e+08
    5.33              372203             442.052         -9.3019e+06         2.74345e+08
    5.35              371788             441.276        -9.29154e+06         2.74013e+08
    5.37              371368             440.496        -9.28104e+06         2.73676e+08
    5.39              370942             439.711         -9.2704e+06         2.73337e+08
    5.41              370510             438.922        -9.25963e+06         2.72993e+08
    5.43              370072             438.129        -9.24872e+06         2.72646e+08
    5.45              369628             437.332        -9.23766e+06         2.72295e+08
    5.47              369179             436.531        -9.22647e+06         2.71941e+08
    5.49              368723             435.725        -9.21515e+06         2.71583e+08
    5.51              368262             434.915        -9.20368e+06         2.71221e+08
    5.53              367795             434.101        -9.19207e+06         2.70855e+08
    5.55              367323             433.282        -9.18033e+06         2.70486e+08
    5.57              366844              432.46        -9.16844e+06         2.70113e+08
    5.59              366360             431.633        -9.15642e+06         2.69736e+08
    5.61              365870             430.802        -9.14426e+06         2.69355e+08
    5.63              365374             429.967        -9.13196e+06         2.68971e+08
    5.65              364872             429.127        -9.11952e+06         2.68583e+08
    5.67              364364             428.284        -9.10694e+06         2.68192e+08
    5.69              363851             427.436        -9.09422e+06         2.67796e+08
    5.71              363331             426.584        -9.08136e+06         2.67397e+08
    5.73              362806             425.728        -9.06837e+06         2.66995e+08
    5.75              362275             424.868        -9.05523e+06         2.66588e+08
    5.77              361739             424.004        -9.04196e+06         2.66178e+08
    5.79              361196             423.135        -9.02855e+06         2.65765e+08
    5.81              360648             422.263          -9.015e+06         2.65347e+08
    5.83              360094             421.386        -9.00132e+06         2.64926e+08
    5.85              359534             420.506        -8.98749e+06         2.64501e+08
    5.87              358969             419.621        -8.97353e+06         2.64073e+08
    5.89              358398             418.732        -8.95943e+06         2.63641e+08
    5.91              357820              417.84        -8.94519e+06         2.63205e+08
    5.93              357238             416.943        -8.93082e+06         2.62765e+08
    5.95              356649             416.042         -8.9163e+06         2.62322e+08
    5.97              356055             415.137        -8.90166e+06         2.61875e+08
    5.99              355455             414.228        -8.88687e+06         2.61425e+08
    6.01              354849             413.316        -8.87195e+06         2.60971e+08
    6.03              354238             412.399        -8.85689e+06         2.60513e+08
    6.05              353621             411.478         -8.8417e+06         2.60052e+08
    6.07              352999             410.553        -8.82637e+06         2.59587e+08
    6.09              352370             409.625        -8.81091e+06         2.59119e+08
    6.11              351737             408.692        -8.79531e+06         2.58647e+08
    6.13              351097             407.756        -8.77958e+06         2.58171e+08
    6.15              350452             406.816        -8.76371e+06         2.57692e+08
    6.17              349802             405.872        -8.74771e+06         2.57209e+08
    6.19              349145             404.924        -8.73158e+06         2.56723e+08
    6.21              348484             403.972        -8.71532e+06         2.56233e+08
    6.23              347817             403.017        -8.69892e+06         2.55739e+08
    6.25              347144             402.057        -8.68239e+06         2.55243e+08
    6.27              346466             401.094        -8.66573e+06         2.54742e+08
    6.29              345782             400.127        -8.64894e+06         2.54238e+08
    6.31              345093             399.157        -8.63202e+06         2.53731e+08
    6.33              344399             398.183        -8.61496e+06          2.5322e+08
    6.35              343699             397.205        -8.59778e+06         2.52706e+08
    6.37              342994             396.223        -8.58047e+06         2.52188e+08
    6.39              342283             395.238        -8.56303e+06         2.51667e+08
    6.41              341567             394.249        -8.54546e+06         2.51142e+08
    6.43              340846             393.256        -8.52777e+06         2.50614e+08
    6.45              340120              392.26        -8.50995e+06         2.50083e+08
    6.47              339388             391.261          -8.492e+06         2.49548e+08
    6.49              338651             390.257        -8.47392e+06          2.4901e+08
    6.51              337909             389.251        -8.45573e+06         2.48468e+08
    6.53              337162             388.241         -8.4374e+06         2.47923e+08
    6.55              336409             387.227        -8.41896e+06         2.47375e+08
    6.57              335652              386.21        -8.40039e+06         2.46824e+08
    6.59              334889             385.189        -8.38169e+06         2.46269e+08
    6.61              334122             384.166        -8.36288e+06         2.45711e+08
    6.63              333349             383.138        -8.34394e+06          2.4515e+08
    6.65              332571             382.108        -8.32489e+06         2.44586e+08
    6.67              331789             381.074        -8.30571e+06         2.44018e+08
    6.69              331001             380.036        -8.28641e+06         2.43447e+08
    6.71              330209             378.996          -8.267e+06         2.42873e+08
    6.73              329412             377.952        -8.24747e+06         2.42296e+08
    6.75              328610             376.905        -8.22782e+06         2.41716e+08
    6.77              327803             375.855        -8.20806e+06         2.41132e+08
    6.79              326991             374.802        -8.18818e+06         2.40546e+08
    6.81              326175             373.745        -8.16819e+06         2.39956e+08
    6.83              325354             372.686        -8.14808e+06         2.39364e+08
    6.85              324528             371.623        -8.12786e+06         2.38768e+08
    6.87              323698             370.557        -8.10752e+06          2.3817e+08
    6.89              322863             369.489        -8.08708e+06         2.37568e+08
    6.91              322024             368.417        -8.06653e+06         2.36963e+08
    6.93              321180             367.342        -8.04586e+06         2.36356e+08
    6.95              320331             366.265        -8.02509e+06         2.35746e+08
    6.97              319479             365.184        -8.00421e+06         2.35132e+08
    6.99              318621             364.101        -7.98322e+06         2.34516e+08
    7.01              317760             363.015        -7.96213e+06         2.33897e+08
    7.03              316894             361.926        -7.94093e+06         2.33275e+08
    7.05              316024             360.834        -7.91963e+06          2.3265e+08
    7.07              315150              359.74        -7.89822e+06         2.32023e+08
    7.09              314271             358.642        -7.87671e+06         2.31393e+08
    7.11              313388             357.542         -7.8551e+06          2.3076e+08
    7.13              312502              356.44        -7.83339e+06         2.30124e+08
    7.15              311611             355.335        -7.81159e+06         2.29486e+08
    7.17              310716             354.227        -7.78968e+06         2.28845e+08
    7.19              309817             353.117        -7.76767e+06         2.28201e+08
    7.21              308914             352.004        -7.74557e+06         2.27555e+08
    7.23              308008             350.889        -7.72337e+06         2.26906e+08
    7.25              307097             349.771        -7.70108e+06         2.26255e+08
    7.27              306183             348.651         -7.6787e+06         2.25601e+08
    7.29              305265             347.528        -7.65622e+06         2.24945e+08
    7.31              304343             346.403        -7.63365e+06         2.24286e+08
    7.33              303418             345.276        -7.61099e+06         2.23624e+08
    7.35              302489             344.147        -7.58824e+06         2.22961e+08
    7.37              301556             343.015        -7.56541e+06         2.22295e+08
    7.39              300620             341.881        -7.54248e+06         2.21626e+08
    7.41              299681             340.745        -7.51947e+06         2.20955e+08
    7.43              298738             339.607        -7.49638e+06         2.20282e+08
    7.45              297791             338.467         -7.4732e+06         2.19607e+08
    7.47              296842             337.325        -7.44994e+06         2.18929e+08
    7.49              295889              336.18         -7.4266e+06         2.18249e+08
    7.51              294933             335.034        -7.40317e+06         2.17567e+08
    7.53              293973             333.886        -7.37967e+06         2.16883e+08
    7.55              293011             332.736        -7.35609e+06         2.16197e+08
    7.57              292045             331.584        -7.33243e+06         2.15508e+08
    7.59              291077              330.43         -7.3087e+06         2.14818e+08
    7.61              290105             329.275        -7.28489e+06         2.14125e+08
    7.63              289131             328.117        -7.26101e+06         2.13431e+08
    7.65              288154             326.958        -7.23706e+06         2.12734e+08
    7.67              287173             325.798        -7.21303e+06         2.12036e+08
    7.69              286190             324.636        -7.18894e+06         2.11336e+08
    7.71              285205             323.472        -7.16477e+06         2.10633e+08
    7.73              284216             322.306        -7.14054e+06         2.09929e+08
    7.75              283226              321.14        -7.11625e+06         2.09223e+08
    7.77              282232             319.971        -7.09188e+06         2.08515e+08
    7.79              281236             318.801        -7.06746e+06         2.07806e+08
    7.81              280238              317.63        -7.04297e+06         2.07095e+08
    7.83              279237             316.458        -7.01842e+06         2.06382e+08
    7.85              278234             315.284        -6.99381e+06         2.05667e+08
    7.87              277228             314.109        -6.96914e+06         2.04951e+08
    7.89              276220             312.933        -6.94441e+06         2.04233e+08
    7.91              275210             311.755        -6.91963e+06         2.03514e+08
    7.93              274198             310.577        -6.89479e+06         2.02793e+08
    7.95              273184             309.397        -6.86989e+06          2.0207e+08
    7.97              272168             308.217        -6.84495e+06         2.01347e+08
    7.99              271150             307.035        -6.81995e+06         2.00621e+08
    8.01              270130             305.852         -6.7949e+06         1.99895e+08
    8.03              269108             304.669        -6.76981e+06         1.99166e+08
    8.05              268084             303.484        -6.74466e+06         1.98437e+08
    8.07              267059             302.299        -6.71947e+06         1.97706e+08
    8.09              266032             301.113        -6.69423e+06         1.96974e+08
    8.11              265003             299.926        -6.66896e+06         1.96241e+08
    8.13              263972             298.739        -6.64363e+06         1.95507e+08
    8.15              262940             297.551        -6.61827e+06         1.94771e+08
    8.17              261907             296.362        -6.59287e+06         1.94034e+08
    8.19              260872             295.173        -6.56743e+06         1.93297e+08
    8.21              259836             293.983        -6.54195e+06         1.92558e+08
    8.23              258799             292.793        -6.51643e+06         1.91818e+08
    8.25              257760             291.602        -6.49088e+06         1.91077e+08
    8.27              256720             290.411         -6.4653e+06         1.90335e+08
    8.29              255679             289.219        -6.43968e+06         1.89592e+08
    8.31              254637             288.028        -6.41404e+06         1.88849e+08
    8.33              253594             286.835        -6.38836e+06         1.88104e+08
    8.35              252550             285.643        -6.36266e+06         1.87359e+08
    8.37              251505             284.451        -6.33693e+06         1.86612e+08
    8.39              250459             283.258        -6.31117e+06         1.85866e+08
    8.41              249412             282.066        -6.28539e+06         1.85118e+08
    8.43              248365             280.873        -6.25959e+06          1.8437e+08
    8.45              247316              279.68        -6.23376e+06         1.83621e+08
    8.47              246268             278.488        -6.20792e+06         1.82871e+08
    8.49              245218             277.295        -6.18205e+06         1.82121e+08
    8.51              244169             276.103        -6.15617e+06          1.8137e+08
    8.53              243118             274.911        -6.13027e+06         1.80619e+08
    8.55              242068             273.719        -6.10436e+06         1.79867e+08
    8.57              241017             272.527        -6.07843e+06         1.79115e+08
    8.59              239965             271.336        -6.05249e+06         1.78363e+08
    8.61              238914             270.145        -6.02654e+06          1.7761e+08
    8.63              237862             268.954        -6.00058e+06         1.76856e+08
    8.65              236810             267.764        -5.97461e+06         1.76103e+08
    8.67              235758             266.575        -5.94864e+06         1.75349e+08
    8.69              234706             265.386        -5.92265e+06         1.74595e+08
    8.71              233654             264.197        -5.89667e+06         1.73841e+08
    8.73              232602              263.01        -5.87068e+06         1.73086e+08
    8.75              231550             261.823        -5.84468e+06         1.72332e+08
    8.77              230499             260.636        -5.81869e+06         1.71577e+08
    8.79              229448             259.451         -5.7927e+06         1.70823e+08
    8.81              228397             258.266        -5.76671e+06         1.70068e+08
    8.83              227346             257.082        -5.74072e+06         1.69313e+08
    8.85              226296             255.899        -5.71474e+06         1.68558e+08
    8.87              225246             254.717        -5.68876e+06         1.67804e+08
    8.89              224197             253.536        -5.66279e+06         1.67049e+08
    8.91              223149             252.356        -5.63683e+06         1.66295e+08
    8.93              222101             251.177        -5.61088e+06         1.65541e+08
    8.95              221054             249.999        -5.58494e+06         1.64787e+08
    8.97              220007             248.823        -5.55901e+06         1.64033e+08
    8.99              218961             247.647        -5.53309e+06          1.6328e+08
    9.01              217917             246.473        -5.50719e+06         1.62527e+08
    9.03              216873             245.301         -5.4813e+06         1.61774e+08
    9.05              215830             244.129        -5.45544e+06         1.61022e+08
    9.07              214788             242.959        -5.42959e+06          1.6027e+08
    9.09              213747             241.791        -5.40376e+06         1.59518e+08
    9.11              212707             240.624        -5.37795e+06         1.58767e+08
    9.13              211668             239.458        -5.35216e+06         1.58017e+08
    9.15              210631             238.294        -5.32639e+06         1.57267e+08
    9.17              209595             237.132        -5.30065e+06         1.56518e+08
    9.19              208560             235.971        -5.27494e+06         1.55769e+08
    9.21              207526             234.812        -5.24925e+06         1.55021e+08
    9.23              206494             233.655        -5.22359e+06         1.54274e+08
    9.25              205464             232.499        -5.19796e+06         1.53527e+08
    9.27              204435             231.346        -5.17236e+06         1.52781e+08
    9.29              203407             230.194         -5.1468e+06         1.52036e+08
    9.31              202381             229.044        -5.12126e+06         1.51292e+08
    9.33              201357             227.897        -5.09576e+06         1.50548e+08
    9.35              200335             226.751         -5.0703e+06         1.49805e+08
    9.37              199314             225.607        -5.04487e+06         1.49064e+08
    9.39              198295             224.465        -5.01948e+06         1.48323e+08
    9.41              197278             223.326        -4.99412e+06         1.47583e+08
    9.43              196263             222.188        -4.96881e+06         1.46844e+08
    9.45              195250             221.053        -4.94354e+06         1.46107e+08
    9.47              194238              219.92        -4.91831e+06          1.4537e+08
    9.49              193229              218.79        -4.89312e+06         1.44634e+08
    9.51              192222             217.661        -4.86798e+06           1.439e+08
    9.53              191217             216.535        -4.84288e+06         1.43167e+08
    9.55              190214             215.412        -4.81783e+06         1.42435e+08
    9.57              189214             214.291        -4.79283e+06         1.41704e+08
    9.59              188216             213.172        -4.76787e+06         1.40974e+08
    9.61              187220             212.056        -4.74297e+06         1.40246e+08
    9.63              186226             210.943        -4.71812e+06         1.39519e+08
    9.65              185235             209.832        -4.69331e+06         1.38793e+08
    9.67              184246             208.724        -4.66856e+06         1.38069e+08
    9.69              183260             207.619        -4.64387e+06         1.37346e+08
    9.71              182276             206.516        -4.61923e+06         1.36624e+08
    9.73              181295             205.416        -4.59465e+06         1.35904e+08
    9.75              180316             204.319        -4.57012e+06         1.35185e+08
    9.77              179341             203.225        -4.54565e+06         1.34468e+08
    9.79              178367             202.133        -4.52124e+06         1.33753e+08
    9.81              177397             201.045        -4.49689e+06         1.33039e+08
    9.83              176429             199.959         -4.4726e+06         1.32326e+08
    9.85              175464             198.877        -4.44838e+06         1.31615e+08
    9.87              174502             197.797        -4.42421e+06         1.30906e+08
    9.89              173543             196.721        -4.40011e+06         1.30199e+08
    9.91              172587             195.647        -4.37608e+06         1.29493e+08
    9.93              171634             194.577        -4.35211e+06         1.28789e+08
    9.95              170684              193.51        -4.32821e+06         1.28087e+08
    9.97              169737             192.446        -4.30437e+06         1.27386e+08
    9.99              168792             191.386        -4.28061e+06         1.26687e+08
   10.01              167851             190.328        -4.25691e+06         1.25991e+08
   10.03              166914             189.274        -4.23328e+06         1.25295e+08
   10.05              165979             188.224        -4.20973e+06         1.24602e+08
   10.07              165048             187.176        -4.18625e+06         1.23911e+08
   10.09              164119             186.133        -4.16284e+06         1.23222e+08
   10.11              163195             185.092         -4.1395e+06         1.22534e+08
   10.13              162273             184.055        -4.11624e+06         1.21849e+08
   10.15              161355             183.022        -4.09305e+06         1.21166e+08
   10.17              160440             181.992        -4.06994e+06         1.20484e+08
   10.19              159529             180.965        -4.04691e+06         1.19805e+08
   10.21              158621             179.943        -4.02395e+06         1.19128e+08
   10.23              157716             178.924        -4.00108e+06         1.18452e+08
   10.25              156815             177.908        -3.97828e+06         1.17779e+08
   10.27              155918             176.896        -3.95556e+06         1.17108e+08
   10.29              155024             175.888        -3.93293e+06          1.1644e+08
   10.31              154134             174.884        -3.91037e+06         1.15773e+08
   10.33              153247             173.884         -3.8879e+06         1.15109e+08
   10.35              152365             172.887        -3.86551e+06         1.14447e+08
   10.37              151485             171.894        -3.84321e+06         1.13787e+08
   10.39              150610             170.905        -3.82099e+06         1.13129e+08
   10.41              149738              169.92        -3.79885e+06         1.12474e+08
   10.43              148870             168.939         -3.7768e+06         1.11821e+08
   10.45              148006             167.962        -3.75484e+06          1.1117e+08
   10.47              147145             166.988        -3.73297e+06         1.10522e+08
   10.49              146289             166.019        -3.71118e+06         1.09876e+08
   10.51              145436             165.054        -3.68948e+06         1.09232e+08
   10.53              144587             164.093        -3.66787e+06         1.08591e+08
   10.55              143743             163.135        -3.64635e+06         1.07952e+08
   10.57              142902             162.182        -3.62492e+06         1.07316e+08
   10.59              142065             161.234        -3.60358e+06         1.06682e+08
   10.61              141232             160.289        -3.58233e+06          1.0605e+08
   10.63              140403             159.348        -3.56118e+06         1.05421e+08
   10.65              139578             158.412        -3.54012e+06         1.04795e+08
   10.67              138757             157.479        -3.51915e+06         1.04171e+08
   10.69              137940             156.551        -3.49827e+06          1.0355e+08
   10.71              137127             155.628        -3.47749e+06         1.02931e+08
   10.73              136318             154.708        -3.45681e+06         1.02315e+08
   10.75              135514             153.793        -3.43621e+06         1.01701e+08
   10.77              134713             152.882        -3.41572e+06          1.0109e+08
   10.79              133917             151.976        -3.39532e+06         1.00482e+08
   10.81              133125             151.074        -3.37502e+06         9.98759e+07
   10.83              132337             150.176        -3.35481e+06         9.92727e+07
   10.85              131553             149.282        -3.33471e+06         9.86723e+07
   10.87              130774             148.393         -3.3147e+06         9.80745e+07
   10.89              129999             147.509        -3.29478e+06         9.74794e+07
   10.91              129228             146.629        -3.27497e+06          9.6887e+07
   10.93              128461             145.753        -3.25526e+06         9.62973e+07
   10.95              127698             144.882        -3.23565e+06         9.57104e+07
   10.97              126940             144.015        -3.21613e+06         9.51262e+07
   10.99              126186             143.153        -3.19672e+06         9.45447e+07
   11.01              125437             142.295        -3.17741e+06          9.3966e+07
   11.03              124692             141.442         -3.1582e+06         9.33901e+07
   11.05              123951             140.593        -3.13909e+06          9.2817e+07
   11.07              123214             139.749        -3.12008e+06         9.22467e+07
   11.09              122482              138.91        -3.10117e+06         9.16792e+07
   11.11              121754             138.075        -3.08237e+06         9.11145e+07
   11.13              121031             137.245        -3.06367e+06         9.05526e+07
   11.15              120312             136.419        -3.04507e+06         8.99936e+07
   11.17              119597             135.598        -3.02658e+06         8.94374e+07
   11.19              118887             134.781        -3.00819e+06         8.88841e+07
   11.21              118181              133.97         -2.9899e+06         8.83336e+07
   11.23              117480             133.162        -2.97171e+06         8.77861e+07
   11.25              116782              132.36        -2.95363e+06         8.72414e+07
   11.27              116090             131.562        -2.93566e+06         8.66996e+07
   11.29              115402             130.769        -2.91779e+06         8.61607e+07
   11.31              114718             129.981        -2.90002e+06         8.56247e+07
   11.33              114039             129.197        -2.88236e+06         8.50916e+07
   11.35              113364             128.418         -2.8648e+06         8.45615e+07
   11.37              112694             127.644        -2.84735e+06         8.40342e+07
   11.39              112028             126.874        -2.83001e+06         8.35099e+07
   11.41              111366             126.109        -2.81277e+06         8.29886e+07
   11.43              110709             125.349        -2.79563e+06         8.24702e+07
   11.45              110056             124.594         -2.7786e+06         8.19547e+07
   11.47              109408             123.843        -2.76168e+06         8.14422e+07
   11.49              108765             123.097        -2.74486e+06         8.09327e+07
   11.51              108125             122.356        -2.72815e+06         8.04261e+07
   11.53              107491             121.619        -2.71155e+06         7.99225e+07
   11.55              106860             120.888        -2.69505e+06         7.94219e+07
   11.57              106235             120.161        -2.67866e+06         7.89242e+07
   11.59              105613             119.439        -2.66237e+06         7.84296e+07
   11.61              104996             118.721        -2.64619e+06         7.79379e+07
   11.63              104384             118.009        -2.63012e+06         7.74492e+07
   11.65              103776             117.301        -2.61415e+06         7.69635e+07
   11.67              103172             116.598        -2.59829e+06         7.64808e+07
   11.69              102573             115.899        -2.58253e+06          7.6001e+07
   11.71              101978             115.206        -2.56688e+06         7.55243e+07
   11.73              101388             114.517        -2.55134e+06         7.50506e+07
   11.75              100802             113.833         -2.5359e+06         7.45798e+07
   11.77              100221             113.154        -2.52057e+06         7.41121e+07
   11.79               99644             112.479        -2.50535e+06         7.36474e+07
   11.81             99071.4             111.809        -2.49023e+06         7.31856e+07
   11.83             98503.2             111.144        -2.47522e+06         7.27269e+07
   11.85             97939.4             110.484        -2.46031e+06         7.22712e+07
   11.87               97380             109.828        -2.44551e+06         7.18185e+07
   11.89               96825             109.178        -2.43081e+06         7.13687e+07
   11.91             96274.4             108.532        -2.41622e+06          7.0922e+07
   11.93             95728.1              107.89        -2.40174e+06         7.04783e+07
   11.95             95186.2             107.254        -2.38736e+06         7.00375e+07
   11.97             94648.7             106.622        -2.37308e+06         6.95998e+07
   11.99             94115.4             105.995        -2.35891e+06         6.91651e+07
   12.01             93586.5             105.372        -2.34485e+06         6.87333e+07
   12.03               93062             104.754        -2.33089e+06         6.83045e+07
   12.05             92541.7             104.141        -2.31703e+06         6.78788e+07
   12.07             92025.7             103.533        -2.30328e+06          6.7456e+07
   12.09               91514             102.929        -2.28963e+06         6.70362e+07
   12.11             91006.6              102.33        -2.27609e+06         6.66193e+07
   12.13             90503.4             101.736        -2.26265e+06         6.62055e+07
   12.15             90004.5             101.146        -2.24931e+06         6.57946e+07
   12.17             89509.9             100.561        -2.23608e+06         6.53867e+07
   12.19             89019.4              99.981        -2.22295e+06         6.49817e+07
   12.21             88533.2             99.4053        -2.20992e+06         6.45797e+07
   12.23             88051.1             98.8341        -2.19699e+06         6.41807e+07
   12.25             87573.3             98.2676        -2.18417e+06         6.37846e+07
   12.27             87099.6             97.7057        -2.17145e+06         6.33914e+07
   12.29               86630             97.1484        -2.15883e+06         6.30012e+07
   12.31             86164.6             96.5956        -2.14631e+06         6.26139e+07
   12.33             85703.3             96.0474        -2.13389e+06         6.22295e+07
   12.35             85246.2             95.5038        -2.12157e+06         6.18481e+07
   12.37             84793.1             94.9647        -2.10935e+06         6.14695e+07
   12.39             84344.1             94.4302        -2.09724e+06         6.10939e+07
   12.41             83899.1             93.9001        -2.08522e+06         6.07212e+07
   12.43             83458.2             93.3746         -2.0733e+06         6.03514e+07
   12.45             83021.3             92.8536        -2.06148e+06         5.99844e+07
   12.47             82588.4             92.3371        -2.04976e+06         5.96204e+07
   12.49             82159.6              91.825        -2.03814e+06         5.92592e+07
   12.51             81734.6             91.3174        -2.02662e+06         5.89009e+07
   12.53             81313.7             90.8142        -2.01519e+06         5.85454e+07
   12.55             80896.6             90.3154        -2.00386e+06         5.81928e+07
   12.57             80483.5             89.8211        -1.99263e+06          5.7843e+07
   12.59             80074.3             89.3312         -1.9815e+06         5.74961e+07
   12.61               79669             88.8456        -1.97046e+06          5.7152e+07
   12.63             79267.5             88.3644        -1.95951e+06         5.68107e+07
   12.65             78869.9             87.8876        -1.94867e+06         5.64722e+07
   12.67             78476.1             87.4151        -1.93791e+06         5.61365e+07
   12.69               78086             86.9469        -1.92725e+06         5.58036e+07
   12.71             77699.8             86.4831        -1.91669e+06         5.54734e+07
   12.73             77317.3             86.0235        -1.90622e+06         5.51461e+07
   12.75             76938.6             85.5682        -1.89584e+06         5.48215e+07
   12.77             76563.6             85.1172        -1.88556e+06         5.44996e+07
   12.79             76192.2             84.6704        -1.87536e+06         5.41805e+07
   12.81             75824.6             84.2278        -1.86526e+06         5.38641e+07
   12.83             75460.6             83.7895        -1.85526e+06         5.35505e+07
   12.85             75100.2             83.3553        -1.84534e+06         5.32395e+07
   12.87             74743.5             82.9253        -1.83551e+06         5.29312e+07
   12.89             74390.3             82.4995        -1.82577e+06         5.26257e+07
   12.91             74040.7             82.0778        -1.81613e+06         5.23228e+07
   12.93             73694.7             81.6603        -1.80657e+06         5.20225e+07
   12.95             73352.1             81.2468         -1.7971e+06         5.17249e+07
   12.97             73013.1             80.8375        -1.78772e+06           5.143e+07
   12.99             72677.5             80.4322        -1.77842e+06         5.11377e+07
   13.01             72345.4             80.0309        -1.76922e+06          5.0848e+07
   13.03             72016.7             79.6338         -1.7601e+06         5.05609e+07
   13.05             71691.5             79.2406        -1.75106e+06         5.02764e+07
   13.07             71369.6             78.8514        -1.74212e+06         4.99945e+07
   13.09             71051.1             78.4662        -1.73325e+06         4.97151e+07
   13.11             70735.9              78.085        -1.72448e+06         4.94383e+07
   13.13               70424             77.7077        -1.71578e+06         4.91641e+07
   13.15             70115.4             77.3344        -1.70717e+06         4.88924e+07
   13.17               69810             76.9649        -1.69865e+06         4.86232e+07
   13.19             69507.9             76.5994         -1.6902e+06         4.83565e+07
   13.21             69209.1             76.2377        -1.68184e+06         4.80923e+07
   13.23             68913.4             75.8799        -1.67356e+06         4.78306e+07
   13.25             68620.8             75.5259        -1.66536e+06         4.75714e+07
   13.27             68331.5             75.1757        -1.65724e+06         4.73146e+07
   13.29             68045.2             74.8294         -1.6492e+06         4.70602e+07
   13.31               67762             74.4868        -1.64124e+06         4.68083e+07
   13.33             67481.9             74.1479        -1.63336e+06         4.65588e+07
   13.35             67204.8             73.8128        -1.62556e+06         4.63117e+07
   13.37             66930.8             73.4815        -1.61783e+06         4.60669e+07
   13.39             66659.7             73.1538        -1.61019e+06         4.58246e+07
   13.41             66391.6             72.8298        -1.60262e+06         4.55846e+07
   13.43             66126.5             72.5095        -1.59512e+06          4.5347e+07
   13.45             65864.2             72.1928         -1.5877e+06         4.51116e+07
   13.47             65604.9             71.8798        -1.58036e+06         4.48786e+07
   13.49             65348.4             71.5703        -1.57309e+06         4.46479e+07
   13.51             65094.8             71.2645        -1.56589e+06         4.44195e+07
   13.53             64843.9             70.9622        -1.55877e+06         4.41934e+07
   13.55             64595.9             70.6634        -1.55172e+06         4.39695e+07
   13.57             64350.6             70.3682        -1.54474e+06         4.37478e+07
   13.59             64108.1             70.0765        -1.53784e+06         4.35284e+07
   13.61             63868.2             69.7883          -1.531e+06         4.33112e+07
   13.63             63631.1             69.5036        -1.52424e+06         4.30963e+07
   13.65             63396.6             69.2223        -1.51754e+06         4.28834e+07
   13.67             63164.7             68.9444        -1.51092e+06         4.26728e+07
   13.69             62935.5               68.67        -1.50436e+06         4.24643e+07
   13.71             62708.8             68.3989        -1.49787e+06          4.2258e+07
   13.73             62484.7             68.1313        -1.49145e+06         4.20538e+07
   13.75             62263.2              67.867         -1.4851e+06         4.18517e+07
   13.77             62044.1              67.606        -1.47881e+06         4.16517e+07
   13.79             61827.5             67.3483        -1.47259e+06         4.14537e+07
   13.81             61613.4             67.0939        -1.46643e+06         4.12579e+07
   13.83             61401.7             66.8428        -1.46034e+06         4.10641e+07
   13.85             61192.4              66.595        -1.45431e+06         4.08723e+07
   13.87             60985.5             66.3504        -1.44835e+06         4.06825e+07
   13.89             60780.9              66.109        -1.44245e+06         4.04948e+07
   13.91             60578.6             65.8708        -1.43661e+06          4.0309e+07
   13.93             60378.7             65.6358        -1.43083e+06         4.01253e+07
   13.95               60181              65.404        -1.42512e+06         3.99434e+07
   13.97             59985.6             65.1753        -1.41946e+06         3.97636e+07
   13.99             59792.4             64.9497        -1.41387e+06         3.95856e+07
   14.01             59601.4             64.7272        -1.40833e+06         3.94096e+07
   14.03             59412.6             64.5078        -1.40286e+06         3.92354e+07
   14.05             59225.9             64.2915        -1.39744e+06         3.90632e+07
   14.07             59041.4             64.0782        -1.39208e+06         3.88928e+07
   14.09             58858.9             63.8679        -1.38678e+06         3.87243e+07
   14.11             58678.6             63.6607        -1.38153e+06         3.85576e+07
   14.13             58500.2             63.4564        -1.37634e+06         3.83927e+07
   14.15             58323.9             63.2551        -1.37121e+06         3.82296e+07
   14.17             58149.6             63.0567        -1.36613e+06         3.80683e+07
   14.19             57977.3             62.8612         -1.3611e+06         3.79088e+07
   14.21             57806.9             62.6687        -1.35613e+06         3.77511e+07
   14.23             57638.5              62.479        -1.35121e+06         3.75951e+07
   14.25             57471.9             62.2922        -1.34635e+06         3.74408e+07
   14.27             57307.2             62.1083        -1.34153e+06         3.72883e+07
   14.29             57144.4             61.9272        -1.33677e+06         3.71374e+07
   14.31             56983.4             61.7489        -1.33206e+06         3.69883e+07
   14.33             56824.2             61.5733         -1.3274e+06         3.68408e+07
   14.35             56666.8             61.4006        -1.32279e+06         3.66949e+07
   14.37             56511.1             61.2306        -1.31823e+06         3.65507e+07
   14.39             56357.2             61.0633        -1.31372e+06         3.64081e+07
   14.41               56205             60.8987        -1.30925e+06         3.62672e+07
   14.43             56054.4             60.7368        -1.30484e+06         3.61278e+07
   14.45             55905.6             60.5776        -1.30047e+06           3.599e+07
   14.47             55758.3              60.421        -1.29615e+06         3.58537e+07
   14.49             55612.7             60.2671        -1.29187e+06          3.5719e+07
   14.51             55468.7             60.1158        -1.28764e+06         3.55859e+07
   14.53             55326.2              59.967        -1.28345e+06         3.54542e+07
   14.55             55185.3             59.8209        -1.27931e+06         3.53241e+07
   14.57             55045.9             59.6772        -1.27521e+06         3.51955e+07
   14.59               54908             59.5361        -1.27116e+06         3.50683e+07
   14.61             54771.6             59.3976        -1.26715e+06         3.49426e+07
   14.63             54636.6             59.2615        -1.26318e+06         3.48183e+07
   14.65             54503.1             59.1278        -1.25925e+06         3.46955e+07
   14.67               54371             58.9966        -1.25537e+06          3.4574e+07
   14.69             54240.2             58.8679        -1.25152e+06          3.4454e+07
   14.71             54110.9             58.7415        -1.24772e+06         3.43354e+07
   14.73             53982.9             58.6176        -1.24395e+06         3.42181e+07
   14.75             53856.2              58.496        -1.24023e+06         3.41022e+07
   14.77             53730.8             58.3768        -1.23654e+06         3.39876e+07
   14.79             53606.7             58.2598         -1.2329e+06         3.38744e+07
   14.81             53483.9             58.1452        -1.22929e+06         3.37625e+07
   14.83             53362.3             58.0329        -1.22571e+06         3.36518e+07
   14.85             53241.9             57.9229        -1.22218e+06         3.35425e+07
   14.87             53122.7             57.8151        -1.21868e+06         3.34344e+07
   14.89             53004.7             57.7095        -1.21521e+06         3.33276e+07
   14.91             52887.9             57.6061        -1.21179e+06         3.32221e+07
   14.93             52772.2             57.5049        -1.20839e+06         3.31177e+07
   14.95             52657.6             57.4059        -1.20503e+06         3.30146e+07
   14.97             52544.1              57.309        -1.20171e+06         3.29127e+07
   14.99             52431.7             57.2142        -1.19842e+06          3.2812e+07
   15.01             52320.4             57.1215        -1.19516e+06         3.27125e+07
   15.03             52210.1              57.031        -1.19194e+06         3.26141e+07
   15.05             52100.8             56.9424        -1.18874e+06         3.25169e+07
   15.07             51992.6             56.8559        -1.18558e+06         3.24208e+07
   15.09             51885.3             56.7715        -1.18245e+06         3.23258e+07
   15.11               51779              56.689        -1.17935e+06          3.2232e+07
   15.13             51673.6             56.6085        -1.17628e+06         3.21392e+07
   15.15             51569.2               56.53        -1.17324e+06         3.20475e+07
   15.17             51465.7             56.4534        -1.17023e+06         3.19569e+07
   15.19             51363.1             56.3787        -1.16725e+06         3.18674e+07
   15.21             51261.3             56.3059         -1.1643e+06         3.17789e+07
   15.23             51160.5              56.235        -1.16138e+06         3.16915e+07
   15.25             51060.4             56.1659        -1.15848e+06          3.1605e+07
   15.27             50961.2             56.0987        -1.15562e+06         3.15196e+07
   15.29             50862.9             56.0333        -1.15278e+06         3.14352e+07
   15.31             50765.3             55.9696        -1.14996e+06         3.13517e+07
   15.33             50668.4             55.9077        -1.14717e+06         3.12692e+07
   15.35             50572.4             55.8476        -1.14441e+06         3.11877e+07
   15.37             50477.1             55.7892        -1.14168e+06         3.11072e+07
   15.39             50382.5             55.7325        -1.13897e+06         3.10276e+07
   15.41             50288.6             55.6775        -1.13628e+06         3.09489e+07
   15.43             50195.5             55.6241        -1.13362e+06         3.08711e+07
   15.45               50103             55.5724        -1.13098e+06         3.07942e+07
   15.47             50011.2             55.5223        -1.12836e+06         3.07182e+07
   15.49             49920.1             55.4738        -1.12577e+06         3.06431e+07
   15.51             49829.5             55.4269         -1.1232e+06         3.05688e+07
   15.53             49739.7             55.3815        -1.12066e+06         3.04954e+07
   15.55             49650.4             55.3377        -1.11814e+06         3.04229e+07
   15.57             49561.7             55.2954        -1.11563e+06         3.03512e+07
   15.59             49473.6             55.2546        -1.11315e+06         3.02803e+07
   15.61             49386.1             55.2152         -1.1107e+06         3.02102e+07
   15.63             49299.2             55.1773        -1.10826e+06          3.0141e+07
   15.65             49212.7             55.1408        -1.10584e+06         3.00725e+07
   15.67             49126.9             55.1057        -1.10344e+06         3.00048e+07
   15.69             49041.5             55.0721        -1.10106e+06         2.99379e+07
   15.71             48956.6             55.0397        -1.09871e+06         2.98717e+07
   15.73             48872.3             55.0087        -1.09637e+06         2.98063e+07
   15.75             48788.4             54.9791        -1.09405e+06         2.97417e+07
   15.77               48705             54.9507        -1.09175e+06         2.96777e+07
   15.79               48622             54.9237        -1.08947e+06         2.96145e+07
   15.81             48539.5             54.8978         -1.0872e+06          2.9552e+07
   15.83             48457.4             54.8733        -1.08495e+06         2.94902e+07
   15.85             48375.8             54.8499        -1.08272e+06         2.94291e+07
   15.87             48294.6             54.8277        -1.08051e+06         2.93687e+07
   15.89             48213.7             54.8067        -1.07832e+06         2.93089e+07
   15.91             48133.3             54.7869        -1.07614e+06         2.92499e+07
   15.93             48053.2             54.7682        -1.07398e+06         2.91914e+07
   15.95             47973.6             54.7506        -1.07183e+06         2.91336e+07
   15.97             47894.2             54.7341         -1.0697e+06         2.90765e+07
   15.99             47815.3             54.7186        -1.06759e+06           2.902e+07
   16.01             47736.6             54.7042        -1.06549e+06         2.89641e+07
   16.03             47658.3             54.6909         -1.0634e+06         2.89088e+07
   16.05             47580.4             54.6785        -1.06134e+06         2.88542e+07
   16.07             47502.7             54.6671        -1.05928e+06         2.88001e+07
   16.09             47425.4             54.6567        -1.05724e+06         2.87466e+07
   16.11             47348.3             54.6473        -1.05522e+06         2.86937e+07
   16.13             47271.6             54.6387         -1.0532e+06         2.86413e+07
   16.15             47195.1             54.6311        -1.05121e+06         2.85896e+07
   16.17             47118.9             54.6243        -1.04922e+06         2.85384e+07
   16.19             47042.9             54.6184        -1.04725e+06         2.84877e+07
   16.21             46967.2             54.6134        -1.04529e+06         2.84376e+07
   16.23             46891.8             54.6092        -1.04335e+06          2.8388e+07
   16.25             46816.6             54.6058        -1.04142e+06         2.83389e+07
   16.27             46741.7             54.6031         -1.0395e+06         2.82904e+07
   16.29             46666.9             54.6012        -1.03759e+06         2.82423e+07
   16.31             46592.4             54.6001         -1.0357e+06         2.81948e+07
   16.33             46518.2             54.5997        -1.03381e+06         2.81478e+07
   16.35             46444.1                54.6        -1.03194e+06         2.81012e+07
   16.37             46370.2             54.6009        -1.03008e+06         2.80552e+07
   16.39             46296.5             54.6026        -1.02824e+06         2.80096e+07
   16.41             46223.1             54.6048         -1.0264e+06         2.79645e+07
   16.43             46149.8             54.6077        -1.02458e+06         2.79198e+07
   16.45             46076.6             54.6112        -1.02276e+06         2.78757e+07
   16.47             46003.7             54.6153        -1.02096e+06         2.78319e+07
   16.49             45930.9               54.62        -1.01917e+06         2.77887e+07
   16.51             45858.3             54.6252        -1.01738e+06         2.77458e+07
   16.53             45785.9             54.6309        -1.01561e+06         2.77034e+07
   16.55             45713.6             54.6371        -1.01385e+06         2.76614e+07
   16.57             45641.5             54.6438         -1.0121e+06         2.76199e+07
   16.59             45569.5              54.651        -1.01036e+06         2.75788e+07
   16.61             45497.7             54.6586        -1.00863e+06          2.7538e+07
   16.63               45426             54.6667        -1.00691e+06         2.74977e+07
   16.65             45354.4             54.6752         -1.0052e+06         2.74578e+07
   16.67               45283             54.6841        -1.00349e+06         2.74183e+07
   16.69             45211.7             54.6933         -1.0018e+06         2.73792e+07
   16.71             45140.6             54.7029        -1.00012e+06         2.73405e+07
   16.73             45069.5             54.7129             -998446         2.73021e+07
   16.75             44998.6             54.7232             -996782         2.72642e+07
   16.77             44927.8             54.7337             -995126         2.72266e+07
   16.79             44857.1             54.7446             -993480         2.71894e+07
   16.81             44786.5             54.7557             -991843         2.71525e+07
   16.83             44716.1             54.7671             -990214          2.7116e+07
   16.85             44645.7             54.7787             -988594         2.70799e+07
   16.87             44575.5             54.7906             -986983         2.70441e+07
   16.89             44505.3             54.8026             -985380         2.70086e+07
   16.91             44435.3             54.8148             -983786         2.69735e+07
   16.93             44365.4             54.8272             -982201         2.69388e+07
   16.95             44295.5             54.8397             -980624         2.69044e+07
   16.97             44225.8             54.8524             -979055         2.68703e+07
   16.99             44156.2             54.8652             -977495         2.68365e+07
   17.01             44086.7              54.878             -975942         2.68031e+07
   17.03             44017.2              54.891             -974398           2.677e+07
   17.05             43947.9              54.904             -972863         2.67372e+07
   17.07             43878.6             54.9171             -971335         2.67047e+07
   17.09             43809.5             54.9302             -969815         2.66726e+07
   17.11             43740.4             54.9433             -968303         2.66407e+07
   17.13             43671.5             54.9565             -966800         2.66092e+07
   17.15             43602.6             54.9696             -965304         2.65779e+07
   17.17             43533.9             54.9827             -963816          2.6547e+07
   17.19             43465.2             54.9957             -962336         2.65164e+07
   17.21             43396.6             55.0087             -960864          2.6486e+07
   17.23             43328.2             55.0216             -959400          2.6456e+07
   17.25             43259.8             55.0344             -957944         2.64263e+07
   17.27             43191.5             55.0472             -956496         2.63968e+07
   17.29             43123.3             55.0598             -955055         2.63676e+07
   17.31             43055.3             55.0723             -953622         2.63387e+07
   17.33             42987.3             55.0846             -952197         2.63101e+07
   17.35             42919.4             55.0968             -950780         2.62818e+07
   17.37             42851.6             55.1088             -949371         2.62538e+07
   17.39               42784             55.1206             -947969          2.6226e+07
   17.41             42716.4             55.1322             -946576         2.61985e+07
   17.43               42649             55.1436             -945190         2.61713e+07
   17.45             42581.6             55.1548             -943812         2.61443e+07
   17.47             42514.4             55.1657             -942442         2.61176e+07
   17.49             42447.3             55.1764             -941079         2.60912e+07
   17.51             42380.3             55.1868             -939725         2.60651e+07
   17.53             42313.4             55.1969             -938378         2.60392e+07
   17.55             42246.6             55.2068             -937039         2.60136e+07
   17.57               42180             55.2163             -935708         2.59883e+07
   17.59             42113.5             55.2255             -934386         2.59632e+07
   17.61             42047.1             55.2344             -933071         2.59384e+07
   17.63             41980.8              55.243             -931764         2.59138e+07
   17.65             41914.7             55.2512             -930465         2.58895e+07
   17.67             41848.7              55.259             -929174         2.58655e+07
   17.69             41782.8             55.2665             -927891         2.58417e+07
   17.71             41717.1             55.2736             -926617         2.58181e+07
   17.73             41651.5             55.2803             -925351         2.57949e+07
   17.75             41586.1             55.2865             -924092         2.57718e+07
   17.77             41520.8             55.2924             -922842         2.57491e+07
   17.79             41455.7             55.2978             -921601         2.57266e+07
   17.81             41390.7             55.3028             -920367         2.57043e+07
   17.83             41325.9             55.3074             -919142         2.56823e+07
   17.85             41261.3             55.3115             -917926         2.56606e+07
   17.87             41196.8             55.3151             -916718         2.56391e+07
   17.89             41132.5             55.3182             -915518         2.56178e+07
   17.91             41068.3             55.3209             -914327         2.55969e+07
   17.93             41004.4              55.323             -913145         2.55761e+07
   17.95             40940.6             55.3247             -911971         2.55556e+07
   17.97               40877             55.3258             -910806         2.55354e+07
   17.99             40813.6             55.3264             -909650         2.55154e+07
   18.01             40750.3             55.3265             -908503         2.54957e+07
   18.03             40687.3              55.326             -907364         2.54762e+07
   18.05             40624.5              55.325             -906235          2.5457e+07
   18.07             40561.8             55.3235             -905114         2.54381e+07
   18.09             40499.4             55.3213             -904003         2.54193e+07
   18.11             40437.2             55.3186             -902901         2.54009e+07
   18.13             40375.2             55.3153             -901808         2.53827e+07
   18.15             40313.4             55.3114             -900724         2.53647e+07
   18.17             40251.8             55.3069             -899650          2.5347e+07
   18.19             40190.5             55.3018             -898585         2.53296e+07
   18.21             40129.3             55.2961             -897529         2.53124e+07
   18.23             40068.5             55.2898             -896483         2.52955e+07
   18.25             40007.8             55.2829             -895447         2.52788e+07
   18.27             39947.4             55.2753             -894420         2.52624e+07
   18.29             39887.3             55.2671             -893403         2.52462e+07
   18.31             39827.4             55.2582             -892396         2.52303e+07
   18.33             39767.7             55.2487             -891398         2.52147e+07
   18.35             39708.3             55.2385             -890411         2.51993e+07
   18.37             39649.2             55.2277             -889433         2.51841e+07
   18.39             39590.3             55.2162             -888466         2.51693e+07
   18.41             39531.7              55.204             -887509         2.51547e+07
   18.43             39473.4             55.1912             -886562         2.51403e+07
   18.45             39415.4             55.1776             -885625         2.51263e+07
   18.47             39357.6             55.1634             -884699         2.51124e+07
   18.49             39300.2             55.1485             -883783         2.50989e+07
   18.51               39243             55.1329             -882878         2.50856e+07
   18.53             39186.1             55.1166             -881983         2.50726e+07
   18.55             39129.6             55.0996             -881099         2.50599e+07
   18.57             39073.3             55.0818             -880226         2.50474e+07
   18.59             39017.3             55.0634             -879363         2.50352e+07
   18.61             38961.7             55.0442             -878512         2.50232e+07
   18.63             38906.4             55.0243             -877671         2.50116e+07
   18.65             38851.4             55.0037             -876841         2.50002e+07
   18.67             38796.7             54.9823             -876023         2.49891e+07
   18.69             38742.3             54.9603             -875215         2.49782e+07
   18.71             38688.3             54.9375             -874419         2.49677e+07
   18.73             38634.7             54.9139             -873634         2.49574e+07
   18.75             38581.3             54.8896             -872861         2.49474e+07
   18.77             38528.4             54.8646             -872099         2.49376e+07
   18.79             38475.7             54.8388             -871348         2.49282e+07
   18.81             38423.5             54.8123             -870609          2.4919e+07
   18.83             38371.6              54.785             -869882         2.49101e+07
   18.85               38320             54.7569             -869167         2.49015e+07
   18.87             38268.8             54.7281             -868463         2.48932e+07
   18.89               38218             54.6986             -867771         2.48852e+07
   18.91             38167.6             54.6683             -867091         2.48774e+07
   18.93             38117.5             54.6372             -866423           2.487e+07
   18.95             38067.9             54.6054             -865767         2.48628e+07
   18.97             38018.6             54.5728             -865124         2.48559e+07
   18.99             37969.7             54.5395             -864492         2.48494e+07
   19.01             37921.2             54.5054             -863873         2.48431e+07
   19.03             37873.1             54.4705             -863266         2.48371e+07
   19.05             37825.4             54.4349             -862671         2.48314e+07
   19.07             37778.2             54.3985             -862089          2.4826e+07
   19.09             37731.3             54.3613             -861520         2.48209e+07
   19.11             37684.8             54.3234             -860963         2.48161e+07
   19.13             37638.8             54.2847             -860418         2.48116e+07
   19.15             37593.2             54.2452             -859887         2.48074e+07
   19.17               37548              54.205             -859368         2.48035e+07
   19.19             37503.2              54.164             -858862         2.47999e+07
   19.21             37458.9             54.1223             -858368         2.47966e+07
   19.23               37415             54.0798             -857888         2.47936e+07
   19.25             37371.5             54.0365             -857421          2.4791e+07
   19.27             37328.5             53.9925             -856966         2.47886e+07
   19.29             37285.9             53.9477             -856525         2.47865e+07
   19.31             37243.8             53.9022             -856097         2.47848e+07
   19.33             37202.1             53.8559             -855682         2.47834e+07
   19.35             37160.9             53.8089             -855280         2.47822e+07
   19.37             37120.1             53.7611             -854892         2.47814e+07
   19.39             37079.8             53.7125             -854517         2.47809e+07
   19.41               37040             53.6633             -854155         2.47808e+07
   19.43             37000.6             53.6132             -853807         2.47809e+07
   19.45             36961.7             53.5624             -853472         2.47814e+07
   19.47             36923.3             53.5109             -853150         2.47821e+07
   19.49             36885.3             53.4587             -852843         2.47832e+07
   19.51             36847.8             53.4057             -852548         2.47847e+07
   19.53             36810.8              53.352             -852268         2.47864e+07
   19.55             36774.3             53.2975             -852001         2.47885e+07
   19.57             36738.3             53.2423             -851747         2.47909e+07
   19.59             36702.7             53.1864             -851508         2.47936e+07
   19.61             36667.6             53.1298             -851282         2.47966e+07
   19.63             36633.1             53.0725             -851070            2.48e+07
   19.65               36599             53.0144             -850871         2.48037e+07
   19.67             36565.4             52.9557             -850687         2.48077e+07
   19.69             36532.3             52.8962             -850516          2.4812e+07
   19.71             36499.7             52.8361             -850359         2.48167e+07
   19.73             36467.6             52.7752             -850216         2.48217e+07
   19.75               36436             52.7137             -850087          2.4827e+07
   19.77               36405             52.6514             -849972         2.48327e+07
   19.79             36374.4             52.5885             -849871         2.48387e+07
   19.81             36344.3             52.5249             -849784         2.48451e+07
   19.83             36314.7             52.4607             -849711         2.48517e+07
   19.85             36285.7             52.3957             -849652         2.48587e+07
   19.87             36257.1             52.3301             -849607         2.48661e+07
   19.89             36229.1             52.2639             -849576         2.48737e+07
   19.91             36201.6              52.197             -849559         2.48817e+07
   19.93             36174.6             52.1294             -849556         2.48901e+07
   19.95             36148.1             52.0612             -849567         2.48987e+07
   19.97             36122.2             51.9924             -849592         2.49078e+07
   19.99             36096.7             51.9229             -849631         2.49171e+07
