## w(eV)         sigma(Sm^-1)     kappa(W(mK)^-1)        L12/e(Am^-1)      L22/e^2(Wm^-1)
    0.01              538201             858.544        -1.10683e+07         3.08954e+08
    0.03              538197             858.533        -1.10682e+07         3.08952e+08
    0.05              538188             858.512        -1.10681e+07         3.08949e+08
    0.07              538174             858.481        -1.10679e+07         3.08943e+08
    0.09              538156             858.439        -1.10676e+07         3.08937e+08
    0.11              538133             858.386        -1.10673e+07         3.08928e+08
    0.13              538106             858.323        -1.10669e+07         3.08918e+08
    0.15              538075              858.25        -1.10665e+07         3.08905e+08
    0.17              538039             858.166        -1.10659e+07         3.08892e+08
    0.19              537998             858.072        -1.10654e+07         3.08876e+08
    0.21              537953             857.967        -1.10647e+07         3.08859e+08
    0.23              537903             857.852         -1.1064e+07          3.0884e+08
    0.25              537849             857.726        -1.10632e+07         3.08819e+08
    0.27              537790              857.59        -1.10624e+07         3.08797e+08
    0.29              537727             857.443        -1.10615e+07         3.08773e+08
    0.31              537659             857.286        -1.10605e+07         3.08747e+08
    0.33              537587             857.118        -1.10595e+07         3.08719e+08
    0.35              537510              856.94        -1.10584e+07          3.0869e+08
    0.37              537429             856.752        -1.10573e+07         3.08659e+08
    0.39              537343             856.553         -1.1056e+07         3.08626e+08
    0.41              537253             856.344        -1.10548e+07         3.08591e+08
    0.43              537158             856.124        -1.10534e+07         3.08555e+08
    0.45              537059             855.894         -1.1052e+07         3.08517e+08
    0.47              536955             855.653        -1.10505e+07         3.08477e+08
    0.49              536847             855.403         -1.1049e+07         3.08436e+08
    0.51              536734             855.141        -1.10474e+07         3.08393e+08
    0.53              536617              854.87        -1.10457e+07         3.08348e+08
    0.55              536495             854.588         -1.1044e+07         3.08301e+08
    0.57              536369             854.296        -1.10422e+07         3.08253e+08
    0.59              536238             853.993        -1.10403e+07         3.08203e+08
    0.61              536103             853.681        -1.10384e+07         3.08151e+08
    0.63              535963             853.358        -1.10364e+07         3.08098e+08
    0.65              535819             853.024        -1.10343e+07         3.08042e+08
    0.67              535670             852.681        -1.10322e+07         3.07985e+08
    0.69              535517             852.327          -1.103e+07         3.07927e+08
    0.71              535359             851.963        -1.10277e+07         3.07866e+08
    0.73              535197             851.589        -1.10254e+07         3.07804e+08
    0.75              535031             851.204         -1.1023e+07          3.0774e+08
    0.77              534859             850.809        -1.10206e+07         3.07675e+08
    0.79              534684             850.405        -1.10181e+07         3.07607e+08
    0.81              534504              849.99        -1.10155e+07         3.07538e+08
    0.83              534319             849.565        -1.10129e+07         3.07467e+08
    0.85              534130              849.13        -1.10101e+07         3.07395e+08
    0.87              533937             848.684        -1.10074e+07         3.07321e+08
    0.89              533739             848.229        -1.10045e+07         3.07245e+08
    0.91              533536             847.764        -1.10016e+07         3.07167e+08
    0.93              533329             847.288        -1.09987e+07         3.07087e+08
    0.95              533118             846.803        -1.09956e+07         3.07006e+08
    0.97              532902             846.307        -1.09925e+07         3.06923e+08
    0.99              532682             845.802        -1.09894e+07         3.06839e+08
    1.01              532457             845.286        -1.09861e+07         3.06752e+08
    1.03              532228             844.761        -1.09828e+07         3.06664e+08
    1.05              531994             844.226        -1.09795e+07         3.06574e+08
    1.07              531756             843.681        -1.09761e+07         3.06483e+08
    1.09              531514             843.126        -1.09726e+07         3.06389e+08
    1.11              531267             842.561         -1.0969e+07         3.06294e+08
    1.13              531016             841.987        -1.09654e+07         3.06197e+08
    1.15              530760             841.402        -1.09617e+07         3.06099e+08
    1.17              530500             840.808         -1.0958e+07         3.05999e+08
    1.19              530235             840.204        -1.09541e+07         3.05897e+08
    1.21              529966             839.591        -1.09503e+07         3.05793e+08
    1.23              529692             838.967        -1.09463e+07         3.05687e+08
    1.25              529415             838.334        -1.09423e+07          3.0558e+08
    1.27              529132             837.692        -1.09382e+07         3.05471e+08
    1.29              528846              837.04        -1.09341e+07         3.05361e+08
    1.31              528554             836.378        -1.09299e+07         3.05248e+08
    1.33              528259             835.707        -1.09256e+07         3.05134e+08
    1.35              527959             835.026        -1.09212e+07         3.05018e+08
    1.37              527655             834.335        -1.09168e+07         3.04901e+08
    1.39              527346             833.636        -1.09123e+07         3.04781e+08
    1.41              527033             832.926        -1.09078e+07          3.0466e+08
    1.43              526715             832.208        -1.09032e+07         3.04537e+08
    1.45              526394              831.48        -1.08985e+07         3.04413e+08
    1.47              526067             830.742        -1.08938e+07         3.04286e+08
    1.49              525737             829.995         -1.0889e+07         3.04158e+08
    1.51              525402             829.239        -1.08841e+07         3.04028e+08
    1.53              525063             828.474        -1.08792e+07         3.03897e+08
    1.55              524719               827.7        -1.08742e+07         3.03764e+08
    1.57              524371             826.916        -1.08691e+07         3.03629e+08
    1.59              524018             826.123        -1.08639e+07         3.03492e+08
    1.61              523662             825.321        -1.08587e+07         3.03353e+08
    1.63              523301              824.51        -1.08535e+07         3.03213e+08
    1.65              522935              823.69        -1.08481e+07         3.03071e+08
    1.67              522566              822.86        -1.08427e+07         3.02927e+08
    1.69              522192             822.022        -1.08372e+07         3.02782e+08
    1.71              521813             821.175        -1.08317e+07         3.02635e+08
    1.73              521431             820.319        -1.08261e+07         3.02486e+08
    1.75              521044             819.454        -1.08204e+07         3.02335e+08
    1.77              520652              818.58        -1.08147e+07         3.02183e+08
    1.79              520257             817.697        -1.08089e+07         3.02028e+08
    1.81              519857             816.806         -1.0803e+07         3.01872e+08
    1.83              519453             815.906        -1.07971e+07         3.01715e+08
    1.85              519044             814.997        -1.07911e+07         3.01555e+08
    1.87              518631             814.079         -1.0785e+07         3.01394e+08
    1.89              518214             813.153        -1.07788e+07         3.01231e+08
    1.91              517793             812.218        -1.07726e+07         3.01066e+08
    1.93              517368             811.274        -1.07663e+07           3.009e+08
    1.95              516938             810.322          -1.076e+07         3.00732e+08
    1.97              516504             809.362        -1.07536e+07         3.00562e+08
    1.99              516065             808.393        -1.07471e+07          3.0039e+08
    2.01              515623             807.415        -1.07405e+07         3.00217e+08
    2.03              515176              806.43        -1.07339e+07         3.00042e+08
    2.05              514725             805.435        -1.07272e+07         2.99865e+08
    2.07              514270             804.433        -1.07205e+07         2.99686e+08
    2.09              513810             803.422        -1.07137e+07         2.99506e+08
    2.11              513347             802.403        -1.07068e+07         2.99323e+08
    2.13              512879             801.376        -1.06998e+07         2.99139e+08
    2.15              512407             800.341        -1.06928e+07         2.98954e+08
    2.17              511930             799.298        -1.06857e+07         2.98766e+08
    2.19              511450             798.246        -1.06786e+07         2.98577e+08
    2.21              510965             797.187        -1.06713e+07         2.98386e+08
    2.23              510477             796.119         -1.0664e+07         2.98193e+08
    2.25              509984             795.044        -1.06567e+07         2.97999e+08
    2.27              509486             793.961        -1.06492e+07         2.97803e+08
    2.29              508985              792.87        -1.06417e+07         2.97605e+08
    2.31              508480             791.771        -1.06342e+07         2.97405e+08
    2.33              507970             790.664        -1.06265e+07         2.97204e+08
    2.35              507456              789.55        -1.06188e+07            2.97e+08
    2.37              506939             788.428         -1.0611e+07         2.96796e+08
    2.39              506417             787.298        -1.06032e+07         2.96589e+08
    2.41              505891              786.16        -1.05953e+07          2.9638e+08
    2.43              505360             785.015        -1.05873e+07          2.9617e+08
    2.45              504826             783.863        -1.05792e+07         2.95958e+08
    2.47              504288             782.703        -1.05711e+07         2.95744e+08
    2.49              503745             781.536        -1.05629e+07         2.95529e+08
    2.51              503199             780.361        -1.05547e+07         2.95312e+08
    2.53              502648             779.179        -1.05463e+07         2.95092e+08
    2.55              502093              777.99         -1.0538e+07         2.94872e+08
    2.57              501535             776.793        -1.05295e+07         2.94649e+08
    2.59              500972             775.589         -1.0521e+07         2.94425e+08
    2.61              500405             774.378        -1.05123e+07         2.94199e+08
    2.63              499834              773.16        -1.05037e+07         2.93971e+08
    2.65              499260             771.935        -1.04949e+07         2.93741e+08
    2.67              498681             770.703        -1.04861e+07          2.9351e+08
    2.69              498098             769.464        -1.04772e+07         2.93277e+08
    2.71              497511             768.217        -1.04683e+07         2.93042e+08
    2.73              496920             766.964        -1.04593e+07         2.92805e+08
    2.75              496325             765.705        -1.04502e+07         2.92567e+08
    2.77              495727             764.438         -1.0441e+07         2.92327e+08
    2.79              495124             763.165        -1.04318e+07         2.92085e+08
    2.81              494517             761.885        -1.04225e+07         2.91841e+08
    2.83              493907             760.598        -1.04131e+07         2.91596e+08
    2.85              493292             759.304        -1.04037e+07         2.91349e+08
    2.87              492674             758.005        -1.03942e+07           2.911e+08
    2.89              492051             756.698        -1.03846e+07         2.90849e+08
    2.91              491425             755.385         -1.0375e+07         2.90597e+08
    2.93              490795             754.066        -1.03653e+07         2.90342e+08
    2.95              490160              752.74        -1.03555e+07         2.90086e+08
    2.97              489522             751.408        -1.03456e+07         2.89829e+08
    2.99              488881              750.07        -1.03357e+07         2.89569e+08
    3.01              488235             748.725        -1.03257e+07         2.89308e+08
    3.03              487585             747.375        -1.03157e+07         2.89045e+08
    3.05              486932             746.018        -1.03055e+07          2.8878e+08
    3.07              486275             744.655        -1.02953e+07         2.88514e+08
    3.09              485614             743.286         -1.0285e+07         2.88245e+08
    3.11              484949             741.911        -1.02747e+07         2.87975e+08
    3.13              484280              740.53        -1.02643e+07         2.87703e+08
    3.15              483607             739.143        -1.02538e+07          2.8743e+08
    3.17              482931              737.75        -1.02433e+07         2.87154e+08
    3.19              482251             736.352        -1.02326e+07         2.86877e+08
    3.21              481567             734.948        -1.02219e+07         2.86598e+08
    3.23              480880             733.538        -1.02112e+07         2.86318e+08
    3.25              480188             732.122        -1.02003e+07         2.86035e+08
    3.27              479493             730.701        -1.01894e+07         2.85751e+08
    3.29              478795             729.274        -1.01785e+07         2.85465e+08
    3.31              478092             727.842        -1.01674e+07         2.85178e+08
    3.33              477386             726.404        -1.01563e+07         2.84888e+08
    3.35              476676             724.961        -1.01451e+07         2.84597e+08
    3.37              475963             723.513        -1.01339e+07         2.84304e+08
    3.39              475245             722.059        -1.01226e+07         2.84009e+08
    3.41              474525               720.6        -1.01112e+07         2.83713e+08
    3.43              473800             719.136        -1.00997e+07         2.83415e+08
    3.45              473072             717.666        -1.00882e+07         2.83115e+08
    3.47              472340             716.192        -1.00766e+07         2.82813e+08
    3.49              471605             714.712        -1.00649e+07         2.82509e+08
    3.51              470866             713.227        -1.00532e+07         2.82204e+08
    3.53              470123             711.738        -1.00413e+07         2.81897e+08
    3.55              469377             710.243        -1.00295e+07         2.81588e+08
    3.57              468628             708.744        -1.00175e+07         2.81278e+08
    3.59              467874             707.239        -1.00055e+07         2.80966e+08
    3.61              467118              705.73        -9.99339e+06         2.80652e+08
    3.63              466357             704.217        -9.98123e+06         2.80336e+08
    3.65              465594             702.698          -9.969e+06         2.80018e+08
    3.67              464826             701.175         -9.9567e+06         2.79699e+08
    3.69              464056             699.647        -9.94433e+06         2.79378e+08
    3.71              463281             698.115        -9.93189e+06         2.79055e+08
    3.73              462504             696.579        -9.91937e+06         2.78731e+08
    3.75              461722             695.037        -9.90679e+06         2.78405e+08
    3.77              460938             693.492        -9.89414e+06         2.78077e+08
    3.79              460150             691.942        -9.88142e+06         2.77747e+08
    3.81              459358             690.388        -9.86864e+06         2.77415e+08
    3.83              458563              688.83        -9.85578e+06         2.77082e+08
    3.85              457765             687.267        -9.84285e+06         2.76747e+08
    3.87              456964             685.701        -9.82985e+06          2.7641e+08
    3.89              456159              684.13        -9.81678e+06         2.76072e+08
    3.91              455350             682.555        -9.80365e+06         2.75732e+08
    3.93              454539             680.976        -9.79044e+06          2.7539e+08
    3.95              453724             679.394        -9.77716e+06         2.75046e+08
    3.97              452905             677.807        -9.76382e+06         2.74701e+08
    3.99              452084             676.217        -9.75041e+06         2.74353e+08
    4.01              451259             674.622        -9.73692e+06         2.74005e+08
    4.03              450431             673.024        -9.72337e+06         2.73654e+08
    4.05              449600             671.423        -9.70975e+06         2.73302e+08
    4.07              448765             669.817        -9.69606e+06         2.72948e+08
    4.09              447927             668.208         -9.6823e+06         2.72592e+08
    4.11              447086             666.596        -9.66848e+06         2.72234e+08
    4.13              446242              664.98        -9.65458e+06         2.71875e+08
    4.15              445395              663.36        -9.64062e+06         2.71514e+08
    4.17              444544             661.737        -9.62658e+06         2.71151e+08
    4.19              443691             660.111        -9.61248e+06         2.70787e+08
    4.21              442834             658.482        -9.59831e+06         2.70421e+08
    4.23              441974             656.849        -9.58408e+06         2.70053e+08
    4.25              441111             655.213        -9.56977e+06         2.69683e+08
    4.27              440245             653.574         -9.5554e+06         2.69312e+08
    4.29              439376             651.931        -9.54095e+06         2.68939e+08
    4.31              438504             650.286        -9.52644e+06         2.68564e+08
    4.33              437628             648.637        -9.51187e+06         2.68188e+08
    4.35              436750             646.986        -9.49722e+06          2.6781e+08
    4.37              435869             645.332        -9.48251e+06          2.6743e+08
    4.39              434984             643.674        -9.46773e+06         2.67048e+08
    4.41              434097             642.014        -9.45288e+06         2.66665e+08
    4.43              433207             640.351        -9.43796e+06          2.6628e+08
    4.45              432314             638.686        -9.42298e+06         2.65894e+08
    4.47              431418             637.017        -9.40793e+06         2.65505e+08
    4.49              430519             635.346        -9.39282e+06         2.65115e+08
    4.51              429617             633.673        -9.37763e+06         2.64723e+08
    4.53              428712             631.997        -9.36238e+06          2.6433e+08
    4.55              427805             630.318        -9.34707e+06         2.63935e+08
    4.57              426894             628.637        -9.33169e+06         2.63538e+08
    4.59              425981             626.954        -9.31624e+06          2.6314e+08
    4.61              425065             625.268        -9.30072e+06          2.6274e+08
    4.63              424146             623.579        -9.28514e+06         2.62338e+08
    4.65              423224             621.889        -9.26949e+06         2.61934e+08
    4.67              422300             620.196        -9.25378e+06         2.61529e+08
    4.69              421372             618.501          -9.238e+06         2.61123e+08
    4.71              420443             616.804        -9.22216e+06         2.60714e+08
    4.73              419510             615.105        -9.20625e+06         2.60304e+08
    4.75              418575             613.404        -9.19028e+06         2.59892e+08
    4.77              417637             611.701        -9.17424e+06         2.59479e+08
    4.79              416696             609.995        -9.15814e+06         2.59064e+08
    4.81              415753             608.288        -9.14197e+06         2.58647e+08
    4.83              414807             606.579        -9.12574e+06         2.58229e+08
    4.85              413859             604.869        -9.10944e+06         2.57809e+08
    4.87              412908             603.156        -9.09308e+06         2.57387e+08
    4.89              411954             601.442        -9.07666e+06         2.56964e+08
    4.91              410998             599.726        -9.06017e+06         2.56539e+08
    4.93              410039             598.008        -9.04362e+06         2.56112e+08
    4.95              409078             596.289          -9.027e+06         2.55684e+08
    4.97              408114             594.568        -9.01032e+06         2.55254e+08
    4.99              407148             592.845        -8.99358e+06         2.54823e+08
    5.01              406180             591.122        -8.97678e+06          2.5439e+08
    5.03              405209             589.396        -8.95991e+06         2.53955e+08
    5.05              404235              587.67        -8.94298e+06         2.53519e+08
    5.07              403259             585.942        -8.92599e+06         2.53081e+08
    5.09              402281             584.212        -8.90894e+06         2.52642e+08
    5.11              401301             582.482        -8.89183e+06         2.52201e+08
    5.13              400318              580.75        -8.87465e+06         2.51758e+08
    5.15              399333             579.017        -8.85741e+06         2.51314e+08
    5.17              398345             577.283        -8.84011e+06         2.50868e+08
    5.19              397355             575.548        -8.82276e+06         2.50421e+08
    5.21              396363             573.812        -8.80534e+06         2.49972e+08
    5.23              395369             572.075        -8.78786e+06         2.49522e+08
    5.25              394373             570.336        -8.77032e+06         2.49069e+08
    5.27              393374             568.597        -8.75272e+06         2.48616e+08
    5.29              392373             566.857        -8.73506e+06         2.48161e+08
    5.31              391370             565.117        -8.71734e+06         2.47704e+08
    5.33              390365             563.375        -8.69956e+06         2.47246e+08
    5.35              389358             561.633        -8.68172e+06         2.46786e+08
    5.37              388349              559.89        -8.66383e+06         2.46325e+08
    5.39              387337             558.146        -8.64587e+06         2.45862e+08
    5.41              386324             556.402        -8.62786e+06         2.45397e+08
    5.43              385308             554.657        -8.60979e+06         2.44932e+08
    5.45              384291             552.911        -8.59166e+06         2.44464e+08
    5.47              383271             551.165        -8.57348e+06         2.43995e+08
    5.49              382250             549.419        -8.55524e+06         2.43525e+08
    5.51              381227             547.672        -8.53694e+06         2.43053e+08
    5.53              380201             545.925        -8.51859e+06          2.4258e+08
    5.55              379174             544.177        -8.50017e+06         2.42105e+08
    5.57              378145             542.429        -8.48171e+06         2.41628e+08
    5.59              377114             540.681        -8.46318e+06         2.41151e+08
    5.61              376082             538.932        -8.44461e+06         2.40671e+08
    5.63              375047             537.184        -8.42597e+06          2.4019e+08
    5.65              374011             535.435        -8.40729e+06         2.39708e+08
    5.67              372973             533.686        -8.38855e+06         2.39225e+08
    5.69              371933             531.937        -8.36975e+06          2.3874e+08
    5.71              370891             530.188         -8.3509e+06         2.38253e+08
    5.73              369848             528.439          -8.332e+06         2.37765e+08
    5.75              368803              526.69        -8.31304e+06         2.37276e+08
    5.77              367756             524.941        -8.29403e+06         2.36785e+08
    5.79              366708             523.192        -8.27497e+06         2.36293e+08
    5.81              365658             521.444        -8.25586e+06         2.35799e+08
    5.83              364607             519.695        -8.23669e+06         2.35304e+08
    5.85              363554             517.947        -8.21748e+06         2.34808e+08
    5.87              362500             516.199        -8.19821e+06          2.3431e+08
    5.89              361444             514.452        -8.17889e+06         2.33811e+08
    5.91              360386             512.704        -8.15952e+06          2.3331e+08
    5.93              359327             510.958         -8.1401e+06         2.32808e+08
    5.95              358267             509.211        -8.12063e+06         2.32305e+08
    5.97              357205             507.465        -8.10112e+06           2.318e+08
    5.99              356141             505.719        -8.08155e+06         2.31294e+08
    6.01              355077             503.974        -8.06193e+06         2.30787e+08
    6.03              354011              502.23        -8.04227e+06         2.30278e+08
    6.05              352944             500.486        -8.02256e+06         2.29769e+08
    6.07              351875             498.743         -8.0028e+06         2.29257e+08
    6.09              350805                 497        -7.98299e+06         2.28745e+08
    6.11              349734             495.258        -7.96314e+06         2.28231e+08
    6.13              348662             493.517        -7.94324e+06         2.27716e+08
    6.15              347588             491.777         -7.9233e+06         2.27199e+08
    6.17              346513             490.037        -7.90331e+06         2.26682e+08
    6.19              345437             488.298        -7.88327e+06         2.26163e+08
    6.21              344360             486.561        -7.86319e+06         2.25643e+08
    6.23              343282             484.824        -7.84306e+06         2.25121e+08
    6.25              342203             483.088         -7.8229e+06         2.24599e+08
    6.27              341123             481.353        -7.80268e+06         2.24075e+08
    6.29              340041             479.619        -7.78243e+06          2.2355e+08
    6.31              338959             477.886        -7.76213e+06         2.23023e+08
    6.33              337876             476.154        -7.74179e+06         2.22496e+08
    6.35              336791             474.423        -7.72141e+06         2.21967e+08
    6.37              335706             472.693        -7.70098e+06         2.21437e+08
    6.39              334620             470.965        -7.68052e+06         2.20906e+08
    6.41              333533             469.238        -7.66001e+06         2.20374e+08
    6.43              332445             467.512        -7.63947e+06         2.19841e+08
    6.45              331356             465.787        -7.61888e+06         2.19306e+08
    6.47              330267             464.063        -7.59826e+06         2.18771e+08
    6.49              329177             462.341        -7.57759e+06         2.18234e+08
    6.51              328086             460.621        -7.55689e+06         2.17696e+08
    6.53              326994             458.901        -7.53615e+06         2.17157e+08
    6.55              325901             457.183        -7.51538e+06         2.16617e+08
    6.57              324808             455.467        -7.49456e+06         2.16076e+08
    6.59              323714             453.752        -7.47371e+06         2.15533e+08
    6.61              322620             452.039        -7.45282e+06          2.1499e+08
    6.63              321525             450.327         -7.4319e+06         2.14446e+08
    6.65              320429             448.617        -7.41095e+06           2.139e+08
    6.67              319333             446.908        -7.38995e+06         2.13354e+08
    6.69              318236             445.201        -7.36893e+06         2.12806e+08
    6.71              317139             443.496        -7.34787e+06         2.12258e+08
    6.73              316042             441.793        -7.32677e+06         2.11708e+08
    6.75              314944             440.091        -7.30565e+06         2.11158e+08
    6.77              313845             438.391        -7.28449e+06         2.10606e+08
    6.79              312746             436.693         -7.2633e+06         2.10054e+08
    6.81              311647             434.996        -7.24208e+06           2.095e+08
    6.83              310547             433.302        -7.22083e+06         2.08946e+08
    6.85              309447             431.609        -7.19955e+06         2.08391e+08
    6.87              308347             429.919        -7.17823e+06         2.07835e+08
    6.89              307247              428.23        -7.15689e+06         2.07277e+08
    6.91              306146             426.543        -7.13552e+06         2.06719e+08
    6.93              305045             424.859        -7.11412e+06          2.0616e+08
    6.95              303944             423.176         -7.0927e+06         2.05601e+08
    6.97              302843             421.496        -7.07125e+06          2.0504e+08
    6.99              301741             419.817        -7.04977e+06         2.04478e+08
    7.01              300640             418.141        -7.02826e+06         2.03916e+08
    7.03              299538             416.467        -7.00673e+06         2.03353e+08
    7.05              298437             414.795        -6.98517e+06         2.02789e+08
    7.07              297335             413.125        -6.96359e+06         2.02224e+08
    7.09              296234             411.458        -6.94199e+06         2.01658e+08
    7.11              295132             409.792        -6.92036e+06         2.01092e+08
    7.13              294031             408.129         -6.8987e+06         2.00524e+08
    7.15              292929             406.469        -6.87703e+06         1.99956e+08
    7.17              291828             404.811        -6.85533e+06         1.99387e+08
    7.19              290727             403.155        -6.83362e+06         1.98818e+08
    7.21              289626             401.501        -6.81188e+06         1.98248e+08
    7.23              288525              399.85        -6.79012e+06         1.97677e+08
    7.25              287424             398.202        -6.76834e+06         1.97105e+08
    7.27              286324             396.556        -6.74654e+06         1.96533e+08
    7.29              285224             394.912        -6.72473e+06          1.9596e+08
    7.31              284124             393.271        -6.70289e+06         1.95386e+08
    7.33              283025             391.633        -6.68104e+06         1.94812e+08
    7.35              281926             389.997        -6.65917e+06         1.94237e+08
    7.37              280827             388.364        -6.63729e+06         1.93661e+08
    7.39              279729             386.733        -6.61539e+06         1.93085e+08
    7.41              278631             385.105        -6.59347e+06         1.92508e+08
    7.43              277534              383.48        -6.57154e+06         1.91931e+08
    7.45              276437             381.857         -6.5496e+06         1.91353e+08
    7.47              275341             380.238        -6.52764e+06         1.90775e+08
    7.49              274245             378.621        -6.50567e+06         1.90196e+08
    7.51              273150             377.007        -6.48368e+06         1.89616e+08
    7.53              272056             375.395        -6.46169e+06         1.89036e+08
    7.55              270962             373.787        -6.43968e+06         1.88455e+08
    7.57              269868             372.181        -6.41766e+06         1.87874e+08
    7.59              268776             370.579        -6.39564e+06         1.87293e+08
    7.61              267684             368.979         -6.3736e+06         1.86711e+08
    7.63              266593             367.382        -6.35155e+06         1.86128e+08
    7.65              265502             365.788         -6.3295e+06         1.85545e+08
    7.67              264413             364.197        -6.30744e+06         1.84962e+08
    7.69              263324              362.61        -6.28537e+06         1.84378e+08
    7.71              262236             361.025        -6.26329e+06         1.83794e+08
    7.73              261149             359.443        -6.24121e+06          1.8321e+08
    7.75              260063             357.865        -6.21913e+06         1.82625e+08
    7.77              258978             356.289        -6.19703e+06          1.8204e+08
    7.79              257894             354.717        -6.17494e+06         1.81454e+08
    7.81              256810             353.148        -6.15284e+06         1.80869e+08
    7.83              255728             351.582        -6.13074e+06         1.80282e+08
    7.85              254647             350.019        -6.10863e+06         1.79696e+08
    7.87              253567             348.459        -6.08653e+06         1.79109e+08
    7.89              252488             346.903        -6.06442e+06         1.78522e+08
    7.91              251410              345.35        -6.04231e+06         1.77935e+08
    7.93              250333               343.8         -6.0202e+06         1.77348e+08
    7.95              249257             342.254         -5.9981e+06          1.7676e+08
    7.97              248183             340.711        -5.97599e+06         1.76172e+08
    7.99              247110             339.171        -5.95389e+06         1.75584e+08
    8.01              246038             337.635        -5.93178e+06         1.74996e+08
    8.03              244967             336.102        -5.90969e+06         1.74408e+08
    8.05              243898             334.573        -5.88759e+06         1.73819e+08
    8.07              242830             333.047         -5.8655e+06          1.7323e+08
    8.09              241763             331.524        -5.84341e+06         1.72642e+08
    8.11              240698             330.005        -5.82133e+06         1.72053e+08
    8.13              239634              328.49        -5.79926e+06         1.71464e+08
    8.15              238571             326.978        -5.77719e+06         1.70875e+08
    8.17              237510             325.469        -5.75513e+06         1.70286e+08
    8.19              236451             323.965        -5.73308e+06         1.69697e+08
    8.21              235393             322.463        -5.71104e+06         1.69108e+08
    8.23              234336             320.966          -5.689e+06         1.68518e+08
    8.25              233281             319.472        -5.66698e+06         1.67929e+08
    8.27              232228             317.982        -5.64496e+06          1.6734e+08
    8.29              231176             316.495        -5.62296e+06         1.66751e+08
    8.31              230126             315.012        -5.60097e+06         1.66162e+08
    8.33              229078             313.533        -5.57899e+06         1.65573e+08
    8.35              228031             312.058        -5.55702e+06         1.64985e+08
    8.37              226986             310.586        -5.53507e+06         1.64396e+08
    8.39              225943             309.118        -5.51313e+06         1.63807e+08
    8.41              224901             307.654        -5.49121e+06         1.63219e+08
    8.43              223861             306.194         -5.4693e+06          1.6263e+08
    8.45              222823             304.738        -5.44741e+06         1.62042e+08
    8.47              221787             303.285        -5.42553e+06         1.61454e+08
    8.49              220753             301.837        -5.40367e+06         1.60867e+08
    8.51              219721             300.392        -5.38183e+06         1.60279e+08
    8.53              218690             298.951           -5.36e+06         1.59692e+08
    8.55              217662             297.514         -5.3382e+06         1.59105e+08
    8.57              216635             296.081        -5.31641e+06         1.58518e+08
    8.59              215611             294.652        -5.29465e+06         1.57931e+08
    8.61              214588             293.228        -5.27291e+06         1.57345e+08
    8.63              213568             291.807        -5.25118e+06         1.56759e+08
    8.65              212550              290.39        -5.22948e+06         1.56173e+08
    8.67              211533             288.977         -5.2078e+06         1.55588e+08
    8.69              210519             287.568        -5.18615e+06         1.55003e+08
    8.71              209507             286.164        -5.16452e+06         1.54418e+08
    8.73              208497             284.763        -5.14291e+06         1.53834e+08
    8.75              207489             283.367        -5.12133e+06          1.5325e+08
    8.77              206484             281.975        -5.09977e+06         1.52667e+08
    8.79              205481             280.587        -5.07824e+06         1.52084e+08
    8.81              204480             279.203        -5.05674e+06         1.51502e+08
    8.83              203481             277.823        -5.03526e+06          1.5092e+08
    8.85              202484             276.447        -5.01381e+06         1.50338e+08
    8.87              201490             275.076        -4.99239e+06         1.49757e+08
    8.89              200498             273.709          -4.971e+06         1.49176e+08
    8.91              199509             272.346        -4.94964e+06         1.48596e+08
    8.93              198522             270.988        -4.92831e+06         1.48017e+08
    8.95              197537             269.634        -4.90701e+06         1.47438e+08
    8.97              196555             268.284        -4.88574e+06         1.46859e+08
    8.99              195575             266.938         -4.8645e+06         1.46282e+08
    9.01              194597             265.597        -4.84329e+06         1.45704e+08
    9.03              193623              264.26        -4.82212e+06         1.45128e+08
    9.05              192650             262.928        -4.80099e+06         1.44552e+08
    9.07              191680               261.6        -4.77988e+06         1.43977e+08
    9.09              190713             260.276        -4.75881e+06         1.43402e+08
    9.11              189749             258.957        -4.73778e+06         1.42828e+08
    9.13              188786             257.642        -4.71678e+06         1.42255e+08
    9.15              187827             256.332        -4.69582e+06         1.41682e+08
    9.17              186870             255.026         -4.6749e+06          1.4111e+08
    9.19              185916             253.724        -4.65401e+06         1.40539e+08
    9.21              184965             252.428        -4.63316e+06         1.39969e+08
    9.23              184016             251.135        -4.61235e+06         1.39399e+08
    9.25              183070             249.847        -4.59158e+06         1.38831e+08
    9.27              182126             248.564        -4.57085e+06         1.38263e+08
    9.29              181186             247.285        -4.55016e+06         1.37695e+08
    9.31              180248             246.011        -4.52952e+06         1.37129e+08
    9.33              179313             244.742        -4.50891e+06         1.36564e+08
    9.35              178381             243.477        -4.48834e+06         1.35999e+08
    9.37              177452             242.217        -4.46782e+06         1.35435e+08
    9.39              176525             240.961        -4.44734e+06         1.34872e+08
    9.41              175602              239.71         -4.4269e+06          1.3431e+08
    9.43              174681             238.463        -4.40651e+06         1.33749e+08
    9.45              173763             237.222        -4.38616e+06         1.33189e+08
    9.47              172848             235.985        -4.36586e+06          1.3263e+08
    9.49              171936             234.752         -4.3456e+06         1.32072e+08
    9.51              171027             233.525        -4.32539e+06         1.31514e+08
    9.53              170121             232.302        -4.30523e+06         1.30958e+08
    9.55              169218             231.084        -4.28511e+06         1.30403e+08
    9.57              168318             229.871        -4.26504e+06         1.29849e+08
    9.59              167422             228.662        -4.24502e+06         1.29296e+08
    9.61              166528             227.458        -4.22505e+06         1.28743e+08
    9.63              165637             226.259        -4.20513e+06         1.28192e+08
    9.65              164749             225.065        -4.18526e+06         1.27642e+08
    9.67              163865             223.876        -4.16543e+06         1.27093e+08
    9.69              162983             222.691        -4.14566e+06         1.26546e+08
    9.71              162105             221.511        -4.12594e+06         1.25999e+08
    9.73              161229             220.336        -4.10627e+06         1.25453e+08
    9.75              160357             219.166        -4.08665e+06         1.24909e+08
    9.77              159488             218.001        -4.06708e+06         1.24366e+08
    9.79              158623             216.841        -4.04757e+06         1.23824e+08
    9.81              157760             215.686        -4.02811e+06         1.23283e+08
    9.83              156901             214.535        -4.00871e+06         1.22743e+08
    9.85              156045              213.39        -3.98936e+06         1.22205e+08
    9.87              155192             212.249        -3.97006e+06         1.21667e+08
    9.89              154343             211.114        -3.95082e+06         1.21131e+08
    9.91              153497             209.983        -3.93164e+06         1.20597e+08
    9.93              152654             208.857        -3.91251e+06         1.20063e+08
    9.95              151814             207.737        -3.89343e+06         1.19531e+08
    9.97              150978             206.621        -3.87442e+06            1.19e+08
    9.99              150145              205.51        -3.85546e+06          1.1847e+08
   10.01              149315             204.405        -3.83656e+06         1.17942e+08
   10.03              148489             203.304        -3.81772e+06         1.17415e+08
   10.05              147666             202.208        -3.79894e+06         1.16889e+08
   10.07              146846             201.118        -3.78021e+06         1.16365e+08
   10.09              146030             200.032        -3.76155e+06         1.15842e+08
   10.11              145218             198.952        -3.74294e+06          1.1532e+08
   10.13              144408             197.876         -3.7244e+06           1.148e+08
   10.15              143602             196.806        -3.70591e+06         1.14281e+08
   10.17              142800             195.741        -3.68749e+06         1.13764e+08
   10.19              142001              194.68        -3.66913e+06         1.13248e+08
   10.21              141206             193.625        -3.65083e+06         1.12734e+08
   10.23              140413             192.575        -3.63259e+06         1.12221e+08
   10.25              139625             191.531        -3.61441e+06         1.11709e+08
   10.27              138840             190.491         -3.5963e+06         1.11199e+08
   10.29              138058             189.456        -3.57825e+06          1.1069e+08
   10.31              137280             188.427        -3.56027e+06         1.10183e+08
   10.33              136506             187.403        -3.54235e+06         1.09677e+08
   10.35              135735             186.383        -3.52449e+06         1.09173e+08
   10.37              134967              185.37        -3.50669e+06         1.08671e+08
   10.39              134204             184.361        -3.48897e+06          1.0817e+08
   10.41              133443             183.357         -3.4713e+06          1.0767e+08
   10.43              132686             182.359        -3.45371e+06         1.07172e+08
   10.45              131933             181.366        -3.43618e+06         1.06676e+08
   10.47              131184             180.378        -3.41871e+06         1.06181e+08
   10.49              130438             179.395        -3.40131e+06         1.05688e+08
   10.51              129695             178.417        -3.38398e+06         1.05196e+08
   10.53              128957             177.445        -3.36672e+06         1.04706e+08
   10.55              128221             176.478        -3.34952e+06         1.04218e+08
   10.57              127490             175.516        -3.33239e+06         1.03731e+08
   10.59              126762             174.559        -3.31533e+06         1.03246e+08
   10.61              126038             173.608        -3.29834e+06         1.02762e+08
   10.63              125317             172.662        -3.28141e+06          1.0228e+08
   10.65              124600             171.721        -3.26456e+06           1.018e+08
   10.67              123887             170.785        -3.24777e+06         1.01322e+08
   10.69              123177             169.855        -3.23106e+06         1.00845e+08
   10.71              122471              168.93        -3.21441e+06          1.0037e+08
   10.73              121768              168.01        -3.19783e+06         9.98961e+07
   10.75              121070             167.096        -3.18132e+06         9.94244e+07
   10.77              120375             166.186        -3.16489e+06         9.89543e+07
   10.79              119683             165.283        -3.14852e+06          9.8486e+07
   10.81              118996             164.384        -3.13223e+06         9.80195e+07
   10.83              118312             163.491          -3.116e+06         9.75547e+07
   10.85              117632             162.603        -3.09985e+06         9.70916e+07
   10.87              116955              161.72        -3.08377e+06         9.66303e+07
   10.89              116282             160.843        -3.06776e+06         9.61707e+07
   10.91              115613              159.97        -3.05182e+06         9.57129e+07
   10.93              114947             159.104        -3.03595e+06         9.52569e+07
   10.95              114286             158.242        -3.02016e+06         9.48027e+07
   10.97              113628             157.386        -3.00444e+06         9.43502e+07
   10.99              112973             156.535        -2.98879e+06         9.38996e+07
   11.01              112323              155.69        -2.97322e+06         9.34508e+07
   11.03              111676              154.85        -2.95771e+06         9.30038e+07
   11.05              111033             154.015        -2.94228e+06         9.25586e+07
   11.07              110393             153.186        -2.92693e+06         9.21152e+07
   11.09              109758             152.361        -2.91165e+06         9.16737e+07
   11.11              109126             151.543        -2.89644e+06          9.1234e+07
   11.13              108497             150.729         -2.8813e+06         9.07962e+07
   11.15              107873             149.921        -2.86624e+06         9.03602e+07
   11.17              107252             149.118        -2.85126e+06         8.99261e+07
   11.19              106635             148.321        -2.83634e+06         8.94938e+07
   11.21              106021             147.529        -2.82151e+06         8.90634e+07
   11.23              105412             146.742        -2.80674e+06         8.86349e+07
   11.25              104806             145.961        -2.79205e+06         8.82082e+07
   11.27              104204             145.185        -2.77744e+06         8.77835e+07
   11.29              103605             144.414         -2.7629e+06         8.73606e+07
   11.31              103010             143.648        -2.74843e+06         8.69396e+07
   11.33              102419             142.888        -2.73404e+06         8.65205e+07
   11.35              101832             142.134        -2.71973e+06         8.61034e+07
   11.37              101248             141.384        -2.70549e+06         8.56881e+07
   11.39              100668              140.64        -2.69133e+06         8.52747e+07
   11.41              100092             139.901        -2.67724e+06         8.48633e+07
   11.43             99519.5             139.168        -2.66322e+06         8.44538e+07
   11.45             98950.7              138.44        -2.64929e+06         8.40462e+07
   11.47             98385.6             137.717        -2.63542e+06         8.36405e+07
   11.49             97824.2                 137        -2.62164e+06         8.32368e+07
   11.51             97266.5             136.288        -2.60793e+06          8.2835e+07
   11.53             96712.5             135.581        -2.59429e+06         8.24351e+07
   11.55             96162.2             134.879        -2.58073e+06         8.20372e+07
   11.57             95615.5             134.183        -2.56725e+06         8.16412e+07
   11.59             95072.6             133.492        -2.55384e+06         8.12472e+07
   11.61             94533.3             132.807         -2.5405e+06         8.08551e+07
   11.63             93997.7             132.127        -2.52725e+06          8.0465e+07
   11.65             93465.7             131.452        -2.51407e+06         8.00768e+07
   11.67             92937.4             130.782        -2.50096e+06         7.96906e+07
   11.69             92412.8             130.118        -2.48793e+06         7.93064e+07
   11.71             91891.8             129.458        -2.47498e+06         7.89241e+07
   11.73             91374.5             128.805         -2.4621e+06         7.85438e+07
   11.75             90860.8             128.156         -2.4493e+06         7.81654e+07
   11.77             90350.7             127.513        -2.43657e+06          7.7789e+07
   11.79             89844.2             126.875        -2.42392e+06         7.74146e+07
   11.81             89341.4             126.242        -2.41135e+06         7.70422e+07
   11.83             88842.2             125.614        -2.39885e+06         7.66717e+07
   11.85             88346.6             124.992        -2.38643e+06         7.63032e+07
   11.87             87854.6             124.375        -2.37408e+06         7.59367e+07
   11.89             87366.2             123.763        -2.36181e+06         7.55721e+07
   11.91             86881.4             123.156        -2.34961e+06         7.52095e+07
   11.93             86400.2             122.555        -2.33749e+06         7.48489e+07
   11.95             85922.5             121.958        -2.32545e+06         7.44903e+07
   11.97             85448.4             121.367        -2.31348e+06         7.41337e+07
   11.99             84977.8             120.781        -2.30158e+06          7.3779e+07
   12.01             84510.8               120.2        -2.28976e+06         7.34263e+07
   12.03             84047.4             119.625        -2.27802e+06         7.30756e+07
   12.05             83587.4             119.054        -2.26635e+06         7.27269e+07
   12.07               83131             118.489        -2.25475e+06         7.23802e+07
   12.09             82678.1             117.929        -2.24323e+06         7.20354e+07
   12.11             82228.7             117.374        -2.23179e+06         7.16926e+07
   12.13             81782.9             116.824        -2.22042e+06         7.13518e+07
   12.15             81340.4             116.279        -2.20912e+06         7.10129e+07
   12.17             80901.5             115.739         -2.1979e+06         7.06761e+07
   12.19               80466             115.204        -2.18676e+06         7.03412e+07
   12.21               80034             114.675        -2.17568e+06         7.00083e+07
   12.23             79605.5              114.15        -2.16469e+06         6.96773e+07
   12.25             79180.3              113.63        -2.15376e+06         6.93483e+07
   12.27             78758.6             113.116        -2.14291e+06         6.90213e+07
   12.29             78340.4             112.606        -2.13213e+06         6.86963e+07
   12.31             77925.5             112.102        -2.12143e+06         6.83732e+07
   12.33               77514             111.602         -2.1108e+06         6.80521e+07
   12.35             77105.9             111.107        -2.10025e+06         6.77329e+07
   12.37             76701.2             110.618        -2.08976e+06         6.74157e+07
   12.39             76299.8             110.133        -2.07935e+06         6.71005e+07
   12.41             75901.8             109.653        -2.06901e+06         6.67872e+07
   12.43             75507.1             109.178        -2.05875e+06         6.64759e+07
   12.45             75115.8             108.708        -2.04856e+06         6.61665e+07
   12.47             74727.7             108.243        -2.03844e+06         6.58591e+07
   12.49               74343             107.783        -2.02839e+06         6.55536e+07
   12.51             73961.6             107.328        -2.01841e+06           6.525e+07
   12.53             73583.4             106.877        -2.00851e+06         6.49484e+07
   12.55             73208.5             106.431        -1.99868e+06         6.46487e+07
   12.57             72836.9              105.99        -1.98892e+06          6.4351e+07
   12.59             72468.5             105.554        -1.97923e+06         6.40551e+07
   12.61             72103.3             105.123        -1.96961e+06         6.37612e+07
   12.63             71741.4             104.696        -1.96006e+06         6.34693e+07
   12.65             71382.6             104.274        -1.95058e+06         6.31792e+07
   12.67             71027.1             103.857        -1.94117e+06         6.28911e+07
   12.69             70674.7             103.444        -1.93184e+06         6.26048e+07
   12.71             70325.5             103.036        -1.92257e+06         6.23205e+07
   12.73             69979.4             102.633        -1.91337e+06         6.20381e+07
   12.75             69636.5             102.235        -1.90425e+06         6.17575e+07
   12.77             69296.7             101.841        -1.89519e+06         6.14789e+07
   12.79               68960             101.451         -1.8862e+06         6.12021e+07
   12.81             68626.4             101.066        -1.87728e+06         6.09273e+07
   12.83             68295.9             100.686        -1.86843e+06         6.06543e+07
   12.85             67968.4              100.31        -1.85964e+06         6.03831e+07
   12.87             67644.1             99.9391        -1.85093e+06         6.01139e+07
   12.89             67322.7             99.5723        -1.84228e+06         5.98465e+07
   12.91             67004.4               99.21         -1.8337e+06          5.9581e+07
   12.93               66689             98.8522        -1.82519e+06         5.93173e+07
   12.95             66376.7             98.4987        -1.81674e+06         5.90555e+07
   12.97             66067.4             98.1497        -1.80836e+06         5.87955e+07
   12.99               65761              97.805        -1.80005e+06         5.85374e+07
   13.01             65457.6             97.4647         -1.7918e+06          5.8281e+07
   13.03             65157.1             97.1287        -1.78362e+06         5.80266e+07
   13.05             64859.5              96.797        -1.77551e+06         5.77739e+07
   13.07             64564.9             96.4696        -1.76746e+06         5.75231e+07
   13.09             64273.1             96.1465        -1.75948e+06          5.7274e+07
   13.11             63984.2             95.8276        -1.75156e+06         5.70268e+07
   13.13             63698.1             95.5128        -1.74371e+06         5.67813e+07
   13.15               63415             95.2023        -1.73592e+06         5.65377e+07
   13.17             63134.6             94.8959        -1.72819e+06         5.62958e+07
   13.19               62857             94.5937        -1.72053e+06         5.60558e+07
   13.21             62582.3             94.2956        -1.71293e+06         5.58174e+07
   13.23             62310.3             94.0015         -1.7054e+06         5.55809e+07
   13.25             62041.1             93.7115        -1.69793e+06         5.53461e+07
   13.27             61774.7             93.4255        -1.69052e+06         5.51131e+07
   13.29             61510.9             93.1436        -1.68317e+06         5.48818e+07
   13.31             61249.9             92.8656        -1.67589e+06         5.46523e+07
   13.33             60991.6             92.5915        -1.66867e+06         5.44244e+07
   13.35               60736             92.3214        -1.66151e+06         5.41984e+07
   13.37             60483.1             92.0551        -1.65441e+06          5.3974e+07
   13.39             60232.8             91.7928        -1.64737e+06         5.37513e+07
   13.41             59985.1             91.5342        -1.64039e+06         5.35304e+07
   13.43             59740.1             91.2795        -1.63347e+06         5.33111e+07
   13.45             59497.7             91.0286        -1.62661e+06         5.30936e+07
   13.47             59257.8             90.7814        -1.61982e+06         5.28777e+07
   13.49             59020.6             90.5379        -1.61308e+06         5.26635e+07
   13.51             58785.8             90.2982         -1.6064e+06         5.24509e+07
   13.53             58553.7             90.0621        -1.59977e+06         5.22401e+07
   13.55               58324             89.8296        -1.59321e+06         5.20309e+07
   13.57             58096.8             89.6008        -1.58671e+06         5.18233e+07
   13.59             57872.2             89.3755        -1.58026e+06         5.16173e+07
   13.61               57650             89.1538        -1.57387e+06          5.1413e+07
   13.63             57430.2             88.9356        -1.56754e+06         5.12103e+07
   13.65             57212.9              88.721        -1.56126e+06         5.10093e+07
   13.67               56998             88.5097        -1.55504e+06         5.08098e+07
   13.69             56785.6             88.3019        -1.54887e+06          5.0612e+07
   13.71             56575.5             88.0975        -1.54277e+06         5.04157e+07
   13.73             56367.7             87.8965        -1.53671e+06          5.0221e+07
   13.75             56162.4             87.6989        -1.53072e+06         5.00279e+07
   13.77             55959.3             87.5045        -1.52477e+06         4.98363e+07
   13.79             55758.6             87.3134        -1.51888e+06         4.96463e+07
   13.81             55560.2             87.1256        -1.51305e+06         4.94579e+07
   13.83               55364              86.941        -1.50727e+06          4.9271e+07
   13.85             55170.2             86.7596        -1.50154e+06         4.90856e+07
   13.87             54978.6             86.5813        -1.49587e+06         4.89018e+07
   13.89             54789.2             86.4062        -1.49024e+06         4.87195e+07
   13.91               54602             86.2342        -1.48467e+06         4.85387e+07
   13.93               54417             86.0652        -1.47916e+06         4.83594e+07
   13.95             54234.2             85.8993        -1.47369e+06         4.81816e+07
   13.97             54053.6             85.7364        -1.46827e+06         4.80052e+07
   13.99             53875.1             85.5765        -1.46291e+06         4.78304e+07
   14.01             53698.8             85.4195         -1.4576e+06          4.7657e+07
   14.03             53524.5             85.2654        -1.45233e+06          4.7485e+07
   14.05             53352.4             85.1142        -1.44712e+06         4.73146e+07
   14.07             53182.3             84.9659        -1.44196e+06         4.71455e+07
   14.09             53014.3             84.8203        -1.43684e+06         4.69779e+07
   14.11             52848.3             84.6776        -1.43178e+06         4.68117e+07
   14.13             52684.4             84.5376        -1.42676e+06         4.66469e+07
   14.15             52522.5             84.4004        -1.42179e+06         4.64836e+07
   14.17             52362.5             84.2658        -1.41687e+06         4.63216e+07
   14.19             52204.6             84.1339          -1.412e+06          4.6161e+07
   14.21             52048.6             84.0047        -1.40717e+06         4.60018e+07
   14.23             51894.5              83.878        -1.40239e+06          4.5844e+07
   14.25             51742.4             83.7539        -1.39766e+06         4.56875e+07
   14.27             51592.1             83.6324        -1.39297e+06         4.55324e+07
   14.29             51443.8             83.5133        -1.38833e+06         4.53786e+07
   14.31             51297.3             83.3967        -1.38373e+06         4.52262e+07
   14.33             51152.7             83.2826        -1.37918e+06          4.5075e+07
   14.35             51009.9             83.1709        -1.37467e+06         4.49252e+07
   14.37               50869             83.0616        -1.37021e+06         4.47768e+07
   14.39             50729.8             82.9546        -1.36579e+06         4.46296e+07
   14.41             50592.5               82.85        -1.36142e+06         4.44837e+07
   14.43             50456.9             82.7476        -1.35709e+06          4.4339e+07
   14.45               50323             82.6476         -1.3528e+06         4.41957e+07
   14.47             50190.9             82.5497        -1.34855e+06         4.40536e+07
   14.49             50060.6             82.4541        -1.34435e+06         4.39128e+07
   14.51             49931.9             82.3606        -1.34019e+06         4.37732e+07
   14.53             49804.9             82.2692        -1.33607e+06         4.36348e+07
   14.55             49679.6               82.18        -1.33199e+06         4.34977e+07
   14.57             49555.9             82.0928        -1.32795e+06         4.33618e+07
   14.59             49433.9             82.0077        -1.32395e+06         4.32271e+07
   14.61             49313.5             81.9247        -1.31999e+06         4.30936e+07
   14.63             49194.6             81.8436        -1.31607e+06         4.29613e+07
   14.65             49077.4             81.7645        -1.31219e+06         4.28302e+07
   14.67             48961.8             81.6873        -1.30836e+06         4.27003e+07
   14.69             48847.7              81.612        -1.30455e+06         4.25715e+07
   14.71             48735.1             81.5386        -1.30079e+06         4.24439e+07
   14.73             48624.1              81.467        -1.29707e+06         4.23174e+07
   14.75             48514.6             81.3972        -1.29338e+06          4.2192e+07
   14.77             48406.5             81.3293        -1.28973e+06         4.20678e+07
   14.79             48299.9             81.2631        -1.28612e+06         4.19447e+07
   14.81             48194.8             81.1986        -1.28254e+06         4.18227e+07
   14.83             48091.2             81.1358          -1.279e+06         4.17019e+07
   14.85             47988.9             81.0747         -1.2755e+06         4.15821e+07
   14.87             47888.1             81.0152        -1.27203e+06         4.14634e+07
   14.89             47788.6             80.9574         -1.2686e+06         4.13457e+07
   14.91             47690.6             80.9012         -1.2652e+06         4.12292e+07
   14.93             47593.9             80.8465        -1.26184e+06         4.11137e+07
   14.95             47498.5             80.7933        -1.25851e+06         4.09992e+07
   14.97             47404.5             80.7417        -1.25522e+06         4.08858e+07
   14.99             47311.8             80.6915        -1.25196e+06         4.07734e+07
   15.01             47220.4             80.6428        -1.24873e+06          4.0662e+07
   15.03             47130.2             80.5955        -1.24554e+06         4.05517e+07
   15.05             47041.4             80.5496        -1.24238e+06         4.04423e+07
   15.07             46953.7             80.5051        -1.23925e+06          4.0334e+07
   15.09             46867.4              80.462        -1.23615e+06         4.02266e+07
   15.11             46782.2             80.4202        -1.23309e+06         4.01202e+07
   15.13             46698.3             80.3796        -1.23005e+06         4.00148e+07
   15.15             46615.5             80.3404        -1.22705e+06         3.99103e+07
   15.17               46534             80.3023        -1.22408e+06         3.98068e+07
   15.19             46453.6             80.2655        -1.22114e+06         3.97043e+07
   15.21             46374.3             80.2299        -1.21823e+06         3.96027e+07
   15.23             46296.2             80.1955        -1.21535e+06          3.9502e+07
   15.25             46219.2             80.1622         -1.2125e+06         3.94022e+07
   15.27             46143.2               80.13        -1.20967e+06         3.93033e+07
   15.29             46068.4              80.099        -1.20688e+06         3.92054e+07
   15.31             45994.7              80.069        -1.20412e+06         3.91083e+07
   15.33               45922               80.04        -1.20138e+06         3.90121e+07
   15.35             45850.4             80.0121        -1.19867e+06         3.89168e+07
   15.37             45779.8             79.9852        -1.19599e+06         3.88224e+07
   15.39             45710.2             79.9592        -1.19334e+06         3.87288e+07
   15.41             45641.6             79.9342        -1.19071e+06          3.8636e+07
   15.43               45574             79.9102        -1.18811e+06         3.85442e+07
   15.45             45507.4              79.887        -1.18554e+06         3.84531e+07
   15.47             45441.7             79.8648        -1.18299e+06         3.83629e+07
   15.49               45377             79.8434        -1.18047e+06         3.82735e+07
   15.51             45313.3             79.8228        -1.17798e+06         3.81849e+07
   15.53             45250.4             79.8031        -1.17551e+06         3.80971e+07
   15.55             45188.5             79.7841        -1.17306e+06         3.80101e+07
   15.57             45127.4              79.766        -1.17064e+06         3.79239e+07
   15.59             45067.2             79.7485        -1.16825e+06         3.78385e+07
   15.61             45007.9             79.7319        -1.16588e+06         3.77539e+07
   15.63             44949.5             79.7159        -1.16353e+06           3.767e+07
   15.65             44891.9             79.7006        -1.16121e+06         3.75869e+07
   15.67             44835.1              79.686        -1.15891e+06         3.75045e+07
   15.69             44779.2             79.6721        -1.15663e+06         3.74229e+07
   15.71               44724             79.6588        -1.15438e+06          3.7342e+07
   15.73             44669.6              79.646        -1.15214e+06         3.72618e+07
   15.75               44616             79.6339        -1.14993e+06         3.71823e+07
   15.77             44563.2             79.6224        -1.14775e+06         3.71036e+07
   15.79             44511.1             79.6114        -1.14558e+06         3.70255e+07
   15.81             44459.8             79.6009        -1.14344e+06         3.69482e+07
   15.83             44409.2             79.5909        -1.14131e+06         3.68715e+07
   15.85             44359.3             79.5815        -1.13921e+06         3.67956e+07
   15.87             44310.1             79.5725        -1.13713e+06         3.67203e+07
   15.89             44261.6              79.564        -1.13507e+06         3.66456e+07
   15.91             44213.8             79.5559        -1.13303e+06         3.65717e+07
   15.93             44166.7             79.5482        -1.13101e+06         3.64984e+07
   15.95             44120.2             79.5409        -1.12901e+06         3.64257e+07
   15.97             44074.4              79.534        -1.12703e+06         3.63537e+07
   15.99             44029.1             79.5275        -1.12506e+06         3.62823e+07
   16.01             43984.6             79.5213        -1.12312e+06         3.62115e+07
   16.03             43940.6             79.5155         -1.1212e+06         3.61413e+07
   16.05             43897.2               79.51        -1.11929e+06         3.60718e+07
   16.07             43854.4             79.5047         -1.1174e+06         3.60028e+07
   16.09             43812.2             79.4998        -1.11553e+06         3.59345e+07
   16.11             43770.6             79.4951        -1.11368e+06         3.58668e+07
   16.13             43729.5             79.4907        -1.11184e+06         3.57996e+07
   16.15             43688.9             79.4865        -1.11003e+06          3.5733e+07
   16.17             43648.9             79.4825        -1.10823e+06          3.5667e+07
   16.19             43609.4             79.4787        -1.10644e+06         3.56015e+07
   16.21             43570.5             79.4751        -1.10468e+06         3.55367e+07
   16.23               43532             79.4716        -1.10293e+06         3.54723e+07
   16.25               43494             79.4683        -1.10119e+06         3.54085e+07
   16.27             43456.5             79.4652        -1.09947e+06         3.53453e+07
   16.29             43419.5             79.4622        -1.09777e+06         3.52826e+07
   16.31             43382.9             79.4593        -1.09609e+06         3.52204e+07
   16.33             43346.8             79.4564        -1.09441e+06         3.51587e+07
   16.35             43311.2             79.4537        -1.09276e+06         3.50976e+07
   16.37             43275.9              79.451        -1.09112e+06         3.50369e+07
   16.39             43241.1             79.4484        -1.08949e+06         3.49768e+07
   16.41             43206.7             79.4458        -1.08788e+06         3.49172e+07
   16.43             43172.8             79.4432        -1.08628e+06          3.4858e+07
   16.45             43139.2             79.4407         -1.0847e+06         3.47994e+07
   16.47               43106             79.4381        -1.08313e+06         3.47412e+07
   16.49             43073.1             79.4355        -1.08157e+06         3.46835e+07
   16.51             43040.7             79.4329        -1.08003e+06         3.46263e+07
   16.53             43008.6             79.4302         -1.0785e+06         3.45695e+07
   16.55             42976.8             79.4275        -1.07698e+06         3.45132e+07
   16.57             42945.4             79.4247        -1.07548e+06         3.44573e+07
   16.59             42914.3             79.4219        -1.07399e+06         3.44019e+07
   16.61             42883.6             79.4189        -1.07251e+06         3.43469e+07
   16.63             42853.1             79.4158        -1.07105e+06         3.42924e+07
   16.65               42823             79.4126        -1.06959e+06         3.42383e+07
   16.67             42793.2             79.4093        -1.06815e+06         3.41847e+07
   16.69             42763.6             79.4059        -1.06672e+06         3.41314e+07
   16.71             42734.4             79.4022        -1.06531e+06         3.40786e+07
   16.73             42705.4             79.3985         -1.0639e+06         3.40262e+07
   16.75             42676.7             79.3945        -1.06251e+06         3.39741e+07
   16.77             42648.2             79.3904        -1.06112e+06         3.39225e+07
   16.79               42620              79.386        -1.05975e+06         3.38713e+07
   16.81               42592             79.3815        -1.05839e+06         3.38205e+07
   16.83             42564.3             79.3767        -1.05704e+06         3.37701e+07
   16.85             42536.8             79.3717         -1.0557e+06           3.372e+07
   16.87             42509.6             79.3664        -1.05437e+06         3.36703e+07
   16.89             42482.5             79.3609        -1.05305e+06          3.3621e+07
   16.91             42455.7             79.3551        -1.05174e+06         3.35721e+07
   16.93               42429             79.3491        -1.05044e+06         3.35235e+07
   16.95             42402.5             79.3428        -1.04916e+06         3.34753e+07
   16.97             42376.3             79.3362        -1.04788e+06         3.34275e+07
   16.99             42350.2             79.3293        -1.04661e+06           3.338e+07
   17.01             42324.3              79.322        -1.04535e+06         3.33328e+07
   17.03             42298.5             79.3145        -1.04409e+06          3.3286e+07
   17.05               42273             79.3066        -1.04285e+06         3.32396e+07
   17.07             42247.5             79.2984        -1.04162e+06         3.31934e+07
   17.09             42222.2             79.2898         -1.0404e+06         3.31476e+07
   17.11             42197.1             79.2809        -1.03918e+06         3.31022e+07
   17.13             42172.1             79.2716        -1.03797e+06          3.3057e+07
   17.15             42147.2             79.2619        -1.03677e+06         3.30122e+07
   17.17             42122.5             79.2519        -1.03558e+06         3.29677e+07
   17.19             42097.8             79.2415         -1.0344e+06         3.29235e+07
   17.21             42073.3             79.2306        -1.03323e+06         3.28796e+07
   17.23             42048.9             79.2194        -1.03206e+06          3.2836e+07
   17.25             42024.6             79.2077         -1.0309e+06         3.27927e+07
   17.27             42000.4             79.1957        -1.02975e+06         3.27497e+07
   17.29             41976.2             79.1832        -1.02861e+06          3.2707e+07
   17.31             41952.2             79.1702        -1.02748e+06         3.26645e+07
   17.33             41928.2             79.1568        -1.02635e+06         3.26224e+07
   17.35             41904.3              79.143        -1.02523e+06         3.25806e+07
   17.37             41880.5             79.1287        -1.02411e+06          3.2539e+07
   17.39             41856.7             79.1139        -1.02301e+06         3.24977e+07
   17.41               41833             79.0987        -1.02191e+06         3.24567e+07
   17.43             41809.4             79.0829        -1.02082e+06         3.24159e+07
   17.45             41785.8             79.0667        -1.01973e+06         3.23755e+07
   17.47             41762.2               79.05        -1.01865e+06         3.23353e+07
   17.49             41738.7             79.0328        -1.01758e+06         3.22953e+07
   17.51             41715.2             79.0151        -1.01651e+06         3.22556e+07
   17.53             41691.8             78.9969        -1.01545e+06         3.22162e+07
   17.55             41668.4             78.9782         -1.0144e+06          3.2177e+07
   17.57               41645             78.9589        -1.01335e+06          3.2138e+07
   17.59             41621.6             78.9391        -1.01231e+06         3.20993e+07
   17.61             41598.2             78.9188        -1.01128e+06         3.20609e+07
   17.63             41574.9             78.8979        -1.01025e+06         3.20226e+07
   17.65             41551.5             78.8765        -1.00922e+06         3.19847e+07
   17.67             41528.2             78.8546        -1.00821e+06         3.19469e+07
   17.69             41504.9              78.832        -1.00719e+06         3.19094e+07
   17.71             41481.5              78.809        -1.00619e+06         3.18721e+07
   17.73             41458.2             78.7853        -1.00519e+06         3.18351e+07
   17.75             41434.8             78.7611        -1.00419e+06         3.17983e+07
   17.77             41411.4             78.7363         -1.0032e+06         3.17617e+07
   17.79               41388             78.7109        -1.00222e+06         3.17253e+07
   17.81             41364.6              78.685        -1.00124e+06         3.16891e+07
   17.83             41341.1             78.6584        -1.00026e+06         3.16531e+07
   17.85             41317.6             78.6313             -999292         3.16174e+07
   17.87             41294.1             78.6035             -998327         3.15819e+07
   17.89             41270.6             78.5752             -997367         3.15466e+07
   17.91               41247             78.5462             -996413         3.15114e+07
   17.93             41223.4             78.5167             -995463         3.14765e+07
   17.95             41199.7             78.4865             -994517         3.14418e+07
   17.97               41176             78.4557             -993577         3.14073e+07
   17.99             41152.2             78.4243             -992641          3.1373e+07
   18.01             41128.4             78.3923             -991709         3.13389e+07
   18.03             41104.5             78.3596             -990782          3.1305e+07
   18.05             41080.6             78.3263             -989859         3.12713e+07
   18.07             41056.6             78.2924             -988941         3.12377e+07
   18.09             41032.5             78.2578             -988027         3.12044e+07
   18.11             41008.4             78.2226             -987117         3.11712e+07
   18.13             40984.2             78.1867             -986212         3.11383e+07
   18.15               40960             78.1502             -985311         3.11055e+07
   18.17             40935.6             78.1131             -984413         3.10729e+07
   18.19             40911.2             78.0753             -983520         3.10404e+07
   18.21             40886.8             78.0368             -982631         3.10082e+07
   18.23             40862.2             77.9977             -981746         3.09761e+07
   18.25             40837.6              77.958             -980864         3.09442e+07
   18.27             40812.9             77.9175             -979987         3.09125e+07
   18.29             40788.1             77.8765             -979113         3.08809e+07
   18.31             40763.2             77.8347             -978243         3.08495e+07
   18.33             40738.2             77.7923             -977377         3.08183e+07
   18.35             40713.2             77.7492             -976515         3.07873e+07
   18.37             40688.1             77.7055             -975656         3.07564e+07
   18.39             40662.8              77.661             -974801         3.07257e+07
   18.41             40637.5              77.616             -973949         3.06951e+07
   18.43             40612.1             77.5702             -973101         3.06648e+07
   18.45             40586.6             77.5237             -972256         3.06345e+07
   18.47               40561             77.4766             -971415         3.06045e+07
   18.49             40535.2             77.4288             -970577         3.05746e+07
   18.51             40509.4             77.3804             -969743         3.05448e+07
   18.53             40483.5             77.3312             -968912         3.05152e+07
   18.55             40457.5             77.2814             -968085         3.04858e+07
   18.57             40431.4             77.2309             -967260         3.04565e+07
   18.59             40405.2             77.1797             -966439         3.04274e+07
   18.61             40378.9             77.1278             -965622         3.03984e+07
   18.63             40352.5             77.0753             -964807         3.03696e+07
   18.65             40325.9              77.022             -963996         3.03409e+07
   18.67             40299.3             76.9681             -963187         3.03124e+07
   18.69             40272.5             76.9135             -962382          3.0284e+07
   18.71             40245.7             76.8582             -961580         3.02558e+07
   18.73             40218.7             76.8022             -960781         3.02277e+07
   18.75             40191.7             76.7456             -959986         3.01997e+07
   18.77             40164.5             76.6883             -959193          3.0172e+07
   18.79             40137.2             76.6302             -958403         3.01443e+07
   18.81             40109.8             76.5715             -957616         3.01168e+07
   18.83             40082.3             76.5121             -956832         3.00894e+07
   18.85             40054.6             76.4521             -956052         3.00622e+07
   18.87             40026.9             76.3913             -955274         3.00351e+07
   18.89               39999             76.3299             -954498         3.00082e+07
   18.91             39971.1             76.2678             -953726         2.99814e+07
   18.93               39943              76.205             -952957         2.99547e+07
   18.95             39914.8             76.1415             -952190         2.99281e+07
   18.97             39886.5             76.0774             -951427         2.99018e+07
   18.99               39858             76.0126             -950666         2.98755e+07
   19.01             39829.5             75.9471             -949908         2.98494e+07
   19.03             39800.8             75.8809             -949153         2.98234e+07
   19.05               39772              75.814             -948400         2.97975e+07
   19.07             39743.2             75.7465             -947650         2.97718e+07
   19.09             39714.1             75.6783             -946903         2.97462e+07
   19.11               39685             75.6095             -946159         2.97207e+07
   19.13             39655.8             75.5399             -945417         2.96954e+07
   19.15             39626.4             75.4697             -944678         2.96702e+07
   19.17               39597             75.3989             -943942         2.96451e+07
   19.19             39567.4             75.3273             -943208         2.96202e+07
   19.21             39537.7             75.2552             -942477         2.95954e+07
   19.23             39507.9             75.1823             -941749         2.95707e+07
   19.25             39477.9             75.1088             -941023         2.95461e+07
   19.27             39447.9             75.0346             -940300         2.95217e+07
   19.29             39417.7             74.9598             -939579         2.94974e+07
   19.31             39387.4             74.8843             -938861         2.94732e+07
   19.33             39357.1             74.8082             -938146         2.94492e+07
   19.35             39326.5             74.7314             -937433         2.94252e+07
   19.37             39295.9              74.654             -936723         2.94014e+07
   19.39             39265.2             74.5759             -936015         2.93777e+07
   19.41             39234.4             74.4972             -935309         2.93542e+07
   19.43             39203.4             74.4178             -934607         2.93308e+07
   19.45             39172.3             74.3378             -933906         2.93074e+07
   19.47             39141.1             74.2572             -933208         2.92842e+07
   19.49             39109.9             74.1759             -932513         2.92612e+07
   19.51             39078.4              74.094             -931820         2.92382e+07
   19.53             39046.9             74.0115             -931129         2.92154e+07
   19.55             39015.3             73.9284             -930441         2.91927e+07
   19.57             38983.6             73.8446             -929756         2.91701e+07
   19.59             38951.7             73.7602             -929073         2.91476e+07
   19.61             38919.8             73.6752             -928392         2.91253e+07
   19.63             38887.7             73.5896             -927713         2.91031e+07
   19.65             38855.5             73.5033             -927037         2.90809e+07
   19.67             38823.3             73.4165             -926364         2.90589e+07
   19.69             38790.9              73.329             -925692         2.90371e+07
   19.71             38758.4              73.241             -925023         2.90153e+07
   19.73             38725.8             73.1523             -924357         2.89936e+07
   19.75             38693.1              73.063             -923693         2.89721e+07
   19.77             38660.3             72.9732             -923031         2.89507e+07
   19.79             38627.4             72.8828             -922371         2.89294e+07
   19.81             38594.3             72.7917             -921714         2.89082e+07
   19.83             38561.2             72.7001             -921059         2.88871e+07
   19.85               38528             72.6079             -920406         2.88662e+07
   19.87             38494.7             72.5151             -919755         2.88453e+07
   19.89             38461.2             72.4218             -919107         2.88246e+07
   19.91             38427.7             72.3279             -918461         2.88039e+07
   19.93             38394.1             72.2334             -917817         2.87834e+07
   19.95             38360.4             72.1383             -917176          2.8763e+07
   19.97             38326.6             72.0427             -916536         2.87427e+07
   19.99             38292.6             71.9465             -915899         2.87225e+07
